timestamp,acc_x,acc_y,acc_z
48507,0.1652,-0.0963,-0.9607
48561,0.1650,-0.0961,-0.9606
48577,0.1650,-0.0961,-0.9606
48585,0.1650,-0.0961,-0.9606
48593,0.1650,-0.0961,-0.9606
48601,0.1650,-0.0961,-0.9606
48609,0.1652,-0.0961,-0.9606
48617,0.1652,-0.0961,-0.9606
48625,0.1652,-0.0961,-0.9607
48633,0.1652,-0.0961,-0.9607
48643,0.1653,-0.0961,-0.9607
48651,0.1653,-0.0962,-0.9608
48659,0.1654,-0.0962,-0.9608
48667,0.1654,-0.0962,-0.9608
48675,0.1655,-0.0963,-0.9609
48683,0.1655,-0.0963,-0.9609
48691,0.1656,-0.0964,-0.9609
48699,0.1658,-0.0966,-0.9611
48709,0.1658,-0.0966,-0.9611
48719,0.1659,-0.0967,-0.9611
48727,0.1660,-0.0967,-0.9611
48735,0.1660,-0.0968,-0.9611
48743,0.1661,-0.0968,-0.9611
48751,0.1663,-0.0968,-0.9611
48759,0.1664,-0.0968,-0.9611
48767,0.1664,-0.0969,-0.9611
48804,0.1665,-0.0969,-0.9611
48810,0.1665,-0.0969,-0.9611
48819,0.1665,-0.0969,-0.9611
48827,0.1665,-0.0969,-0.9611
48835,0.1665,-0.0969,-0.9611
48845,0.1664,-0.0970,-0.9611
48853,0.1664,-0.0970,-0.9611
48861,0.1663,-0.0970,-0.9609
48869,0.1663,-0.0970,-0.9609
48876,0.1663,-0.0970,-0.9609
48885,0.1661,-0.0970,-0.9609
48893,0.1661,-0.0970,-0.9609
48901,0.1661,-0.0970,-0.9609
48909,0.1660,-0.0970,-0.9609
48917,0.1660,-0.0970,-0.9608
48927,0.1660,-0.0970,-0.9608
48935,0.1661,-0.0970,-0.9608
48942,0.1661,-0.0970,-0.9608
48958,0.1661,-0.0969,-0.9608
48966,0.1663,-0.0969,-0.9608
49000,0.1665,-0.0969,-0.9608
49007,0.1665,-0.0969,-0.9608
49015,0.1666,-0.0969,-0.9608
49023,0.1666,-0.0969,-0.9608
49031,0.1666,-0.0969,-0.9608
49041,0.1666,-0.0969,-0.9608
49049,0.1666,-0.0969,-0.9608
49057,0.1666,-0.0969,-0.9608
49065,0.1665,-0.0969,-0.9608
49073,0.1665,-0.0969,-0.9608
49088,0.1665,-0.0970,-0.9609
49095,0.1664,-0.0970,-0.9609
49105,0.1665,-0.0972,-0.9609
49113,0.1665,-0.0972,-0.9609
49122,0.1665,-0.0973,-0.9609
49133,0.1666,-0.0974,-0.9609
49141,0.1666,-0.0975,-0.9609
49149,0.1667,-0.0975,-0.9609
49157,0.1667,-0.0977,-0.9609
49207,0.1661,-0.0980,-0.9611
49220,0.1659,-0.0978,-0.9612
49229,0.1655,-0.0974,-0.9613
49237,0.1652,-0.0968,-0.9615
49245,0.1646,-0.0958,-0.9617
49260,0.1635,-0.0935,-0.9622
49274,0.1625,-0.0911,-0.9625
49282,0.1621,-0.0901,-0.9625
49293,0.1620,-0.0894,-0.9626
49301,0.1620,-0.0891,-0.9625
49309,0.1621,-0.0891,-0.9624
49317,0.1624,-0.0895,-0.9623
49337,0.1632,-0.0908,-0.9618
49344,0.1637,-0.0918,-0.9615
49378,0.1660,-0.0966,-0.9602
49385,0.1665,-0.0977,-0.9600
49393,0.1670,-0.0986,-0.9597
49401,0.1674,-0.0995,-0.9595
49409,0.1677,-0.1001,-0.9592
49419,0.1680,-0.1006,-0.9591
49428,0.1682,-0.1011,-0.9589
49436,0.1683,-0.1011,-0.9589
49444,0.1683,-0.1010,-0.9589
49452,0.1683,-0.1010,-0.9590
49460,0.1682,-0.1007,-0.9590
49468,0.1681,-0.1003,-0.9590
49476,0.1680,-0.1000,-0.9591
49486,0.1676,-0.0990,-0.9595
49494,0.1674,-0.0984,-0.9596
49501,0.1674,-0.0984,-0.9596
49517,0.1669,-0.0972,-0.9600
49525,0.1666,-0.0967,-0.9602
49533,0.1664,-0.0961,-0.9603
49554,0.1658,-0.0947,-0.9608
49603,0.1652,-0.0931,-0.9614
49616,0.1652,-0.0930,-0.9614
49626,0.1650,-0.0930,-0.9614
49634,0.1650,-0.0930,-0.9614
49642,0.1650,-0.0931,-0.9614
49649,0.1650,-0.0931,-0.9614
49665,0.1650,-0.0935,-0.9614
49673,0.1650,-0.0936,-0.9613
49681,0.1650,-0.0939,-0.9613
49691,0.1652,-0.0944,-0.9612
49699,0.1652,-0.0946,-0.9612
49707,0.1652,-0.0946,-0.9612
49715,0.1652,-0.0948,-0.9612
49723,0.1652,-0.0951,-0.9611
49732,0.1652,-0.0956,-0.9611
49740,0.1652,-0.0957,-0.9609
49750,0.1653,-0.0959,-0.9609
49785,0.1655,-0.0964,-0.9609
49792,0.1656,-0.0966,-0.9608
49800,0.1656,-0.0966,-0.9608
49808,0.1658,-0.0967,-0.9608
49816,0.1659,-0.0967,-0.9608
49829,0.1659,-0.0967,-0.9608
49836,0.1660,-0.0967,-0.9609
49844,0.1660,-0.0967,-0.9609
49852,0.1661,-0.0967,-0.9609
49860,0.1661,-0.0966,-0.9609
49868,0.1663,-0.0964,-0.9608
49876,0.1664,-0.0963,-0.9608
49884,0.1664,-0.0961,-0.9608
49894,0.1664,-0.0958,-0.9608
49902,0.1664,-0.0956,-0.9607
49910,0.1665,-0.0953,-0.9607
49918,0.1665,-0.0953,-0.9607
49926,0.1664,-0.0955,-0.9607
49934,0.1664,-0.0956,-0.9607
49942,0.1664,-0.0957,-0.9608
49952,0.1663,-0.0958,-0.9608
49987,0.1660,-0.0958,-0.9608
49994,0.1660,-0.0958,-0.9608
50002,0.1659,-0.0958,-0.9609
50010,0.1659,-0.0957,-0.9609
50018,0.1659,-0.0956,-0.9609
50028,0.1658,-0.0953,-0.9609
50037,0.1658,-0.0952,-0.9609
50045,0.1658,-0.0950,-0.9609
50052,0.1658,-0.0950,-0.9609
50068,0.1658,-0.0947,-0.9609
50076,0.1658,-0.0946,-0.9609
50084,0.1659,-0.0945,-0.9609
50094,0.1659,-0.0942,-0.9608
50109,0.1660,-0.0942,-0.9608
50123,0.1661,-0.0941,-0.9608
50131,0.1663,-0.0940,-0.9608
50139,0.1663,-0.0940,-0.9607
50202,0.1666,-0.0942,-0.9604
50217,0.1666,-0.0942,-0.9604
50231,0.1666,-0.0944,-0.9604
50239,0.1666,-0.0944,-0.9604
50254,0.1665,-0.0944,-0.9604
50268,0.1664,-0.0945,-0.9606
50276,0.1664,-0.0946,-0.9606
50286,0.1664,-0.0946,-0.9606
50294,0.1663,-0.0947,-0.9606
50302,0.1663,-0.0948,-0.9606
50310,0.1663,-0.0950,-0.9606
50318,0.1663,-0.0951,-0.9606
50326,0.1661,-0.0952,-0.9606
50334,0.1661,-0.0953,-0.9606
50343,0.1661,-0.0955,-0.9606
50353,0.1661,-0.0956,-0.9607
50363,0.1660,-0.0957,-0.9607
50371,0.1660,-0.0959,-0.9607
50379,0.1660,-0.0961,-0.9607
50387,0.1660,-0.0961,-0.9608
50395,0.1660,-0.0962,-0.9608
50403,0.1660,-0.0963,-0.9608
50411,0.1660,-0.0964,-0.9608
50445,0.1660,-0.0967,-0.9609
50452,0.1660,-0.0967,-0.9609
50460,0.1660,-0.0968,-0.9609
50468,0.1660,-0.0968,-0.9609
50476,0.1660,-0.0968,-0.9609
50486,0.1660,-0.0968,-0.9609
50494,0.1660,-0.0968,-0.9609
50502,0.1660,-0.0968,-0.9609
50510,0.1659,-0.0968,-0.9609
50518,0.1659,-0.0968,-0.9609
50526,0.1659,-0.0968,-0.9609
50534,0.1658,-0.0968,-0.9609
50542,0.1658,-0.0968,-0.9609
50552,0.1658,-0.0968,-0.9608
50560,0.1658,-0.0968,-0.9608
50571,0.1656,-0.0967,-0.9608
50578,0.1656,-0.0967,-0.9608
50586,0.1656,-0.0967,-0.9608
50594,0.1656,-0.0967,-0.9608
50602,0.1655,-0.0967,-0.9608
50610,0.1655,-0.0967,-0.9608
50655,0.1653,-0.0964,-0.9612
50664,0.1653,-0.0964,-0.9612
50671,0.1653,-0.0964,-0.9613
50681,0.1653,-0.0964,-0.9613
50689,0.1653,-0.0964,-0.9613
50697,0.1654,-0.0964,-0.9613
50705,0.1654,-0.0964,-0.9614
50713,0.1654,-0.0964,-0.9614
50721,0.1655,-0.0964,-0.9614
50729,0.1655,-0.0964,-0.9613
50737,0.1656,-0.0964,-0.9613
50747,0.1658,-0.0964,-0.9613
50755,0.1658,-0.0964,-0.9612
50763,0.1659,-0.0964,-0.9612
50773,0.1660,-0.0966,-0.9611
50781,0.1660,-0.0966,-0.9611
50789,0.1661,-0.0966,-0.9609
50797,0.1663,-0.0966,-0.9608
50805,0.1663,-0.0966,-0.9608
50839,0.1665,-0.0967,-0.9606
50846,0.1665,-0.0967,-0.9604
50854,0.1666,-0.0967,-0.9604
50862,0.1666,-0.0967,-0.9604
50870,0.1666,-0.0968,-0.9604
50883,0.1666,-0.0968,-0.9604
50890,0.1666,-0.0968,-0.9604
50898,0.1666,-0.0968,-0.9604
50906,0.1666,-0.0968,-0.9604
50914,0.1666,-0.0968,-0.9604
50922,0.1665,-0.0968,-0.9606
50930,0.1665,-0.0969,-0.9606
50938,0.1665,-0.0968,-0.9606
50948,0.1665,-0.0968,-0.9606
50956,0.1664,-0.0968,-0.9607
50977,0.1663,-0.0967,-0.9607
50984,0.1663,-0.0967,-0.9608
50992,0.1663,-0.0967,-0.9608
51000,0.1663,-0.0966,-0.9608
51034,0.1661,-0.0963,-0.9609
51041,0.1661,-0.0963,-0.9609
51049,0.1661,-0.0962,-0.9609
51057,0.1661,-0.0962,-0.9609
51065,0.1663,-0.0961,-0.9609
51075,0.1663,-0.0961,-0.9609
51083,0.1663,-0.0961,-0.9609
51091,0.1663,-0.0959,-0.9609
51099,0.1663,-0.0959,-0.9609
51107,0.1664,-0.0959,-0.9609
51115,0.1664,-0.0959,-0.9608
51123,0.1664,-0.0961,-0.9608
51131,0.1663,-0.0961,-0.9609
51141,0.1663,-0.0961,-0.9609
51149,0.1663,-0.0962,-0.9609
51157,0.1661,-0.0962,-0.9609
51165,0.1661,-0.0963,-0.9609
51184,0.1660,-0.0966,-0.9609
51191,0.1659,-0.0967,-0.9611
51199,0.1659,-0.0968,-0.9611
51257,0.1659,-0.0974,-0.9611
51275,0.1659,-0.0975,-0.9611
51290,0.1660,-0.0975,-0.9611
51298,0.1661,-0.0974,-0.9611
51313,0.1663,-0.0973,-0.9611
51320,0.1663,-0.0973,-0.9611
51328,0.1664,-0.0972,-0.9611
51338,0.1664,-0.0972,-0.9609
51346,0.1665,-0.0970,-0.9609
51354,0.1665,-0.0970,-0.9609
51362,0.1666,-0.0969,-0.9609
51370,0.1666,-0.0969,-0.9608
51378,0.1667,-0.0968,-0.9608
51388,0.1667,-0.0968,-0.9608
51396,0.1669,-0.0968,-0.9608
51430,0.1670,-0.0967,-0.9608
51437,0.1670,-0.0967,-0.9608
51445,0.1671,-0.0967,-0.9608
51453,0.1671,-0.0967,-0.9608
51461,0.1671,-0.0967,-0.9608
51471,0.1671,-0.0967,-0.9608
51479,0.1672,-0.0967,-0.9609
51487,0.1672,-0.0967,-0.9609
51495,0.1674,-0.0967,-0.9609
51503,0.1674,-0.0967,-0.9609
51511,0.1674,-0.0967,-0.9609
51519,0.1674,-0.0967,-0.9609
51527,0.1674,-0.0967,-0.9609
51537,0.1674,-0.0966,-0.9609
51545,0.1674,-0.0966,-0.9609
51553,0.1674,-0.0966,-0.9609
51572,0.1672,-0.0964,-0.9609
51581,0.1671,-0.0964,-0.9609
51592,0.1669,-0.0964,-0.9609
51640,0.1663,-0.0964,-0.9611
51647,0.1661,-0.0964,-0.9611
51655,0.1660,-0.0966,-0.9611
51665,0.1658,-0.0966,-0.9611
51672,0.1658,-0.0966,-0.9611
51688,0.1656,-0.0966,-0.9611
51695,0.1655,-0.0966,-0.9611
51703,0.1654,-0.0966,-0.9612
51711,0.1654,-0.0966,-0.9612
51719,0.1654,-0.0964,-0.9612
51729,0.1654,-0.0964,-0.9612
51737,0.1654,-0.0964,-0.9612
51745,0.1654,-0.0964,-0.9612
51753,0.1654,-0.0964,-0.9612
51761,0.1655,-0.0963,-0.9611
51769,0.1655,-0.0963,-0.9611
51777,0.1656,-0.0963,-0.9611
51823,0.1661,-0.0963,-0.9609
51830,0.1663,-0.0963,-0.9609
51838,0.1664,-0.0963,-0.9608
51846,0.1664,-0.0964,-0.9608
51856,0.1665,-0.0964,-0.9608
51864,0.1665,-0.0964,-0.9607
51872,0.1665,-0.0964,-0.9607
51880,0.1665,-0.0964,-0.9606
51889,0.1665,-0.0963,-0.9603
51897,0.1664,-0.0963,-0.9602
51905,0.1664,-0.0962,-0.9600
51913,0.1663,-0.0962,-0.9600
51923,0.1663,-0.0961,-0.9601
51931,0.1663,-0.0961,-0.9602
51939,0.1663,-0.0961,-0.9603
51947,0.1663,-0.0961,-0.9606
51955,0.1663,-0.0959,-0.9608
51963,0.1663,-0.0959,-0.9609
51971,0.1663,-0.0958,-0.9612
51979,0.1663,-0.0957,-0.9613
51992,0.1661,-0.0956,-0.9615
52001,0.1661,-0.0955,-0.9617
52009,0.1661,-0.0955,-0.9618
52017,0.1660,-0.0953,-0.9619
52025,0.1660,-0.0951,-0.9619
52033,0.1659,-0.0950,-0.9619
52041,0.1659,-0.0948,-0.9619
52075,0.1656,-0.0945,-0.9615
52082,0.1656,-0.0944,-0.9614
52090,0.1656,-0.0942,-0.9613
52098,0.1656,-0.0942,-0.9611
52106,0.1656,-0.0942,-0.9609
52116,0.1658,-0.0942,-0.9608
52124,0.1658,-0.0942,-0.9607
52132,0.1659,-0.0942,-0.9606
52140,0.1660,-0.0944,-0.9604
52148,0.1661,-0.0945,-0.9603
52156,0.1663,-0.0946,-0.9603
52164,0.1664,-0.0947,-0.9603
52172,0.1665,-0.0950,-0.9603
52182,0.1666,-0.0951,-0.9603
52191,0.1667,-0.0955,-0.9603
52209,0.1670,-0.0958,-0.9604
52216,0.1670,-0.0961,-0.9604
52230,0.1670,-0.0962,-0.9606
52287,0.1669,-0.0970,-0.9608
52301,0.1669,-0.0970,-0.9608
52310,0.1667,-0.0970,-0.9608
52318,0.1667,-0.0970,-0.9608
52326,0.1667,-0.0970,-0.9607
52334,0.1666,-0.0970,-0.9607
52342,0.1666,-0.0969,-0.9607
52350,0.1666,-0.0969,-0.9607
52358,0.1665,-0.0969,-0.9607
52366,0.1665,-0.0968,-0.9607
52376,0.1665,-0.0968,-0.9606
52384,0.1665,-0.0967,-0.9606
52392,0.1665,-0.0967,-0.9606
52400,0.1664,-0.0967,-0.9606
52410,0.1664,-0.0966,-0.9606
52418,0.1664,-0.0966,-0.9606
52426,0.1664,-0.0966,-0.9606
52434,0.1665,-0.0966,-0.9606
52468,0.1665,-0.0966,-0.9606
52475,0.1666,-0.0967,-0.9606
52483,0.1666,-0.0967,-0.9606
52492,0.1666,-0.0967,-0.9606
52500,0.1666,-0.0967,-0.9606
52510,0.1667,-0.0967,-0.9606
52518,0.1667,-0.0967,-0.9606
52526,0.1667,-0.0967,-0.9606
52534,0.1669,-0.0967,-0.9606
52542,0.1669,-0.0967,-0.9606
52550,0.1669,-0.0967,-0.9606
52558,0.1669,-0.0966,-0.9606
52566,0.1669,-0.0966,-0.9606
52576,0.1669,-0.0966,-0.9606
52584,0.1669,-0.0964,-0.9607
52592,0.1669,-0.0964,-0.9607
52608,0.1670,-0.0963,-0.9607
52619,0.1670,-0.0962,-0.9608
52626,0.1670,-0.0962,-0.9608
52634,0.1670,-0.0961,-0.9608
52681,0.1672,-0.0961,-0.9609
52688,0.1672,-0.0961,-0.9608
52705,0.1672,-0.0961,-0.9608
52712,0.1672,-0.0962,-0.9608
52720,0.1672,-0.0962,-0.9608
52728,0.1672,-0.0963,-0.9608
52736,0.1672,-0.0963,-0.9608
52744,0.1672,-0.0963,-0.9607
52752,0.1671,-0.0964,-0.9607
52760,0.1671,-0.0964,-0.9607
52770,0.1671,-0.0964,-0.9607
52778,0.1670,-0.0964,-0.9607
52786,0.1670,-0.0966,-0.9606
52795,0.1670,-0.0966,-0.9606
52803,0.1670,-0.0966,-0.9606
52811,0.1670,-0.0966,-0.9606
52821,0.1669,-0.0966,-0.9606
52856,0.1670,-0.0967,-0.9606
52863,0.1670,-0.0968,-0.9604
52871,0.1671,-0.0968,-0.9604
52879,0.1671,-0.0968,-0.9604
52887,0.1671,-0.0969,-0.9604
52897,0.1672,-0.0969,-0.9604
52905,0.1672,-0.0969,-0.9604
52913,0.1674,-0.0969,-0.9604
52921,0.1674,-0.0970,-0.9604
52929,0.1674,-0.0970,-0.9604
52937,0.1675,-0.0970,-0.9604
52945,0.1675,-0.0970,-0.9604
52953,0.1675,-0.0970,-0.9604
52963,0.1676,-0.0970,-0.9604
52971,0.1676,-0.0970,-0.9604
52979,0.1676,-0.0970,-0.9606
52987,0.1676,-0.0970,-0.9606
52995,0.1676,-0.0970,-0.9606
53003,0.1676,-0.0969,-0.9606
53011,0.1676,-0.0970,-0.9606
53019,0.1676,-0.0970,-0.9606
53056,0.1675,-0.0970,-0.9607
53063,0.1675,-0.0970,-0.9607
53070,0.1675,-0.0970,-0.9607
53086,0.1675,-0.0972,-0.9607
53099,0.1674,-0.0972,-0.9607
53107,0.1672,-0.0972,-0.9607
53115,0.1672,-0.0972,-0.9607
53123,0.1672,-0.0972,-0.9606
53131,0.1671,-0.0972,-0.9606
53139,0.1671,-0.0972,-0.9606
53147,0.1670,-0.0972,-0.9606
53157,0.1670,-0.0972,-0.9606
53165,0.1670,-0.0972,-0.9606
53173,0.1669,-0.0972,-0.9606
53181,0.1669,-0.0972,-0.9604
53189,0.1669,-0.0972,-0.9604
53197,0.1669,-0.0970,-0.9604
53205,0.1667,-0.0970,-0.9604
53222,0.1667,-0.0969,-0.9604
53232,0.1667,-0.0968,-0.9604
53247,0.1666,-0.0967,-0.9604
53261,0.1666,-0.0966,-0.9604
53267,0.1666,-0.0966,-0.9604
53324,0.1665,-0.0964,-0.9606
53332,0.1665,-0.0964,-0.9606
53339,0.1665,-0.0966,-0.9606
53349,0.1664,-0.0966,-0.9606
53357,0.1664,-0.0966,-0.9606
53365,0.1664,-0.0966,-0.9606
53373,0.1664,-0.0966,-0.9607
53381,0.1664,-0.0966,-0.9607
53389,0.1664,-0.0967,-0.9607
53397,0.1664,-0.0967,-0.9607
53405,0.1664,-0.0967,-0.9607
53416,0.1664,-0.0967,-0.9608
53436,0.1665,-0.0967,-0.9608
53443,0.1665,-0.0967,-0.9608
53451,0.1666,-0.0967,-0.9608
53459,0.1666,-0.0967,-0.9608
53467,0.1667,-0.0967,-0.9608
53501,0.1670,-0.0967,-0.9609
53508,0.1671,-0.0967,-0.9609
53516,0.1671,-0.0967,-0.9611
53524,0.1672,-0.0967,-0.9611
53532,0.1672,-0.0967,-0.9611
53542,0.1672,-0.0967,-0.9611
53550,0.1674,-0.0967,-0.9611
53558,0.1674,-0.0966,-0.9612
53566,0.1674,-0.0966,-0.9612
53585,0.1674,-0.0966,-0.9612
53593,0.1675,-0.0966,-0.9612
53608,0.1674,-0.0966,-0.9612
53615,0.1674,-0.0966,-0.9612
53623,0.1674,-0.0966,-0.9612
53631,0.1674,-0.0966,-0.9612
53641,0.1672,-0.0966,-0.9612
53649,0.1672,-0.0966,-0.9612
53657,0.1672,-0.0966,-0.9611
53703,0.1670,-0.0964,-0.9609
53710,0.1670,-0.0964,-0.9608
53719,0.1670,-0.0964,-0.9608
53728,0.1670,-0.0964,-0.9608
53735,0.1670,-0.0963,-0.9607
53743,0.1670,-0.0963,-0.9607
53751,0.1670,-0.0963,-0.9607
53759,0.1670,-0.0962,-0.9606
53767,0.1670,-0.0962,-0.9606
53775,0.1670,-0.0962,-0.9606
53783,0.1669,-0.0961,-0.9606
53793,0.1669,-0.0961,-0.9604
53801,0.1669,-0.0961,-0.9604
53809,0.1669,-0.0961,-0.9604
53817,0.1669,-0.0961,-0.9604
53825,0.1669,-0.0961,-0.9604
53833,0.1669,-0.0961,-0.9604
53843,0.1669,-0.0961,-0.9604
53851,0.1669,-0.0962,-0.9604
53886,0.1670,-0.0963,-0.9604
53893,0.1670,-0.0964,-0.9604
53901,0.1670,-0.0964,-0.9604
53909,0.1670,-0.0964,-0.9604
53917,0.1671,-0.0964,-0.9606
53927,0.1671,-0.0966,-0.9606
53935,0.1672,-0.0966,-0.9606
53943,0.1672,-0.0966,-0.9606
53950,0.1672,-0.0966,-0.9606
53966,0.1672,-0.0966,-0.9604
53974,0.1674,-0.0966,-0.9604
53982,0.1674,-0.0966,-0.9604
53992,0.1674,-0.0966,-0.9604
54000,0.1674,-0.0964,-0.9604
54008,0.1674,-0.0964,-0.9604
54016,0.1674,-0.0964,-0.9604
54025,0.1675,-0.0964,-0.9604
54032,0.1675,-0.0964,-0.9604
54050,0.1675,-0.0964,-0.9606
54085,0.1676,-0.0966,-0.9607
54092,0.1676,-0.0966,-0.9607
54100,0.1676,-0.0967,-0.9608
54108,0.1676,-0.0967,-0.9608
54116,0.1675,-0.0968,-0.9608
54126,0.1675,-0.0968,-0.9608
54134,0.1675,-0.0969,-0.9608
54142,0.1675,-0.0969,-0.9608
54150,0.1674,-0.0969,-0.9608
54158,0.1674,-0.0970,-0.9608
54166,0.1672,-0.0970,-0.9608
54174,0.1672,-0.0970,-0.9608
54182,0.1671,-0.0970,-0.9608
54195,0.1671,-0.0972,-0.9608
54202,0.1670,-0.0972,-0.9608
54217,0.1669,-0.0972,-0.9608
54231,0.1669,-0.0972,-0.9608
54238,0.1669,-0.0972,-0.9608
54301,0.1669,-0.0969,-0.9607
54308,0.1669,-0.0969,-0.9606
54318,0.1669,-0.0969,-0.9606
54327,0.1669,-0.0969,-0.9606
54335,0.1669,-0.0968,-0.9606
54343,0.1669,-0.0968,-0.9606
54351,0.1669,-0.0968,-0.9604
54359,0.1667,-0.0968,-0.9604
54367,0.1667,-0.0968,-0.9604
54375,0.1667,-0.0968,-0.9604
54385,0.1666,-0.0967,-0.9604
54393,0.1666,-0.0967,-0.9604
54401,0.1666,-0.0967,-0.9604
54409,0.1666,-0.0967,-0.9604
54417,0.1665,-0.0967,-0.9604
54425,0.1665,-0.0967,-0.9604
54433,0.1665,-0.0967,-0.9604
54441,0.1665,-0.0967,-0.9604
54451,0.1665,-0.0967,-0.9606
54461,0.1665,-0.0967,-0.9606
54468,0.1665,-0.0967,-0.9606
54484,0.1665,-0.0966,-0.9607
54492,0.1666,-0.0966,-0.9607
54500,0.1666,-0.0966,-0.9607
54508,0.1666,-0.0966,-0.9608
54542,0.1669,-0.0966,-0.9609
54549,0.1669,-0.0966,-0.9609
54557,0.1670,-0.0966,-0.9609
54565,0.1670,-0.0966,-0.9611
54573,0.1671,-0.0967,-0.9611
54583,0.1671,-0.0967,-0.9611
54591,0.1671,-0.0967,-0.9611
54599,0.1671,-0.0968,-0.9611
54607,0.1671,-0.0968,-0.9611
54615,0.1671,-0.0968,-0.9611
54623,0.1671,-0.0968,-0.9611
54632,0.1671,-0.0968,-0.9611
54640,0.1671,-0.0968,-0.9611
54650,0.1670,-0.0968,-0.9611
54658,0.1670,-0.0968,-0.9611
54668,0.1670,-0.0967,-0.9611
54676,0.1670,-0.0967,-0.9611
54684,0.1670,-0.0967,-0.9611
54692,0.1670,-0.0967,-0.9611
54700,0.1670,-0.0966,-0.9611
54708,0.1670,-0.0966,-0.9611
54754,0.1671,-0.0963,-0.9611
54761,0.1671,-0.0963,-0.9611
54769,0.1671,-0.0963,-0.9611
54779,0.1671,-0.0962,-0.9611
54786,0.1671,-0.0962,-0.9611
54794,0.1671,-0.0962,-0.9609
54802,0.1671,-0.0962,-0.9609
54810,0.1671,-0.0962,-0.9609
54818,0.1671,-0.0962,-0.9609
54826,0.1671,-0.0963,-0.9608
54834,0.1671,-0.0963,-0.9608
54844,0.1670,-0.0963,-0.9608
54852,0.1670,-0.0963,-0.9607
54860,0.1669,-0.0964,-0.9607
54870,0.1669,-0.0964,-0.9607
54878,0.1669,-0.0966,-0.9606
54886,0.1667,-0.0966,-0.9606
54894,0.1667,-0.0966,-0.9604
54902,0.1667,-0.0967,-0.9604
54937,0.1666,-0.0968,-0.9604
54945,0.1666,-0.0969,-0.9604
54953,0.1666,-0.0969,-0.9604
54961,0.1665,-0.0970,-0.9604
54969,0.1665,-0.0970,-0.9604
54979,0.1665,-0.0972,-0.9606
54986,0.1665,-0.0972,-0.9606
55002,0.1665,-0.0972,-0.9606
55010,0.1665,-0.0972,-0.9606
55018,0.1665,-0.0973,-0.9606
55026,0.1665,-0.0973,-0.9606
55034,0.1665,-0.0973,-0.9606
55044,0.1665,-0.0973,-0.9606
55052,0.1666,-0.0973,-0.9606
55060,0.1666,-0.0973,-0.9606
55080,0.1666,-0.0973,-0.9606
55087,0.1666,-0.0973,-0.9606
55095,0.1666,-0.0973,-0.9606
55129,0.1667,-0.0972,-0.9606
55136,0.1667,-0.0972,-0.9606
55144,0.1667,-0.0970,-0.9606
55152,0.1667,-0.0970,-0.9606
55160,0.1667,-0.0970,-0.9606
55170,0.1667,-0.0970,-0.9606
55178,0.1666,-0.0970,-0.9606
55186,0.1666,-0.0969,-0.9606
55194,0.1666,-0.0969,-0.9606
55202,0.1666,-0.0969,-0.9606
55216,0.1666,-0.0969,-0.9606
55235,0.1666,-0.0969,-0.9604
55241,0.1666,-0.0969,-0.9604
55250,0.1667,-0.0969,-0.9604
55265,0.1667,-0.0968,-0.9604
55282,0.1669,-0.0968,-0.9604
55289,0.1669,-0.0968,-0.9604
55339,0.1672,-0.0966,-0.9603
55346,0.1674,-0.0966,-0.9603
55354,0.1674,-0.0966,-0.9603
55364,0.1674,-0.0964,-0.9603
55372,0.1674,-0.0964,-0.9603
55380,0.1674,-0.0964,-0.9603
55388,0.1672,-0.0964,-0.9603
55396,0.1672,-0.0964,-0.9603
55404,0.1672,-0.0964,-0.9604
55412,0.1671,-0.0964,-0.9604
55420,0.1671,-0.0964,-0.9604
55430,0.1671,-0.0964,-0.9604
55438,0.1670,-0.0964,-0.9604
55446,0.1670,-0.0964,-0.9604
55454,0.1670,-0.0964,-0.9606
55462,0.1669,-0.0964,-0.9606
55470,0.1669,-0.0964,-0.9606
55478,0.1669,-0.0964,-0.9607
55488,0.1667,-0.0964,-0.9607
55523,0.1667,-0.0966,-0.9609
55530,0.1667,-0.0966,-0.9609
55537,0.1667,-0.0966,-0.9609
55554,0.1667,-0.0966,-0.9609
55564,0.1667,-0.0964,-0.9609
55572,0.1667,-0.0964,-0.9609
55580,0.1667,-0.0964,-0.9609
55599,0.1667,-0.0963,-0.9609
55607,0.1667,-0.0963,-0.9609
55615,0.1667,-0.0963,-0.9609
55630,0.1667,-0.0962,-0.9609
55637,0.1667,-0.0962,-0.9608
55644,0.1667,-0.0962,-0.9608
55660,0.1667,-0.0962,-0.9608
55668,0.1667,-0.0962,-0.9607
55676,0.1667,-0.0963,-0.9607
55686,0.1667,-0.0963,-0.9606
55697,0.1667,-0.0963,-0.9606
55704,0.1667,-0.0964,-0.9604
55712,0.1667,-0.0964,-0.9604
55720,0.1667,-0.0964,-0.9604
55728,0.1667,-0.0966,-0.9603
55736,0.1667,-0.0966,-0.9603
55744,0.1667,-0.0967,-0.9603
55789,0.1667,-0.0968,-0.9604
55803,0.1669,-0.0968,-0.9604
55811,0.1669,-0.0968,-0.9606
55821,0.1669,-0.0968,-0.9606
55829,0.1669,-0.0968,-0.9606
55837,0.1669,-0.0968,-0.9606
55845,0.1669,-0.0968,-0.9607
55853,0.1669,-0.0968,-0.9607
55862,0.1669,-0.0967,-0.9607
55870,0.1669,-0.0967,-0.9608
55878,0.1669,-0.0967,-0.9608
55900,0.1669,-0.0967,-0.9608
55907,0.1669,-0.0967,-0.9608
55915,0.1670,-0.0967,-0.9608
55923,0.1670,-0.0967,-0.9608
55931,0.1670,-0.0967,-0.9608
55939,0.1670,-0.0967,-0.9608
55973,0.1669,-0.0968,-0.9607
55980,0.1669,-0.0968,-0.9607
55988,0.1669,-0.0968,-0.9607
55996,0.1667,-0.0968,-0.9606
56004,0.1667,-0.0969,-0.9606
56014,0.1667,-0.0969,-0.9606
56022,0.1666,-0.0969,-0.9606
56030,0.1666,-0.0970,-0.9606
56038,0.1666,-0.0970,-0.9606
56046,0.1665,-0.0972,-0.9606
56054,0.1665,-0.0972,-0.9606
56062,0.1664,-0.0972,-0.9606
56070,0.1664,-0.0972,-0.9606
56080,0.1664,-0.0972,-0.9606
56088,0.1664,-0.0972,-0.9606
56096,0.1663,-0.0972,-0.9606
56106,0.1664,-0.0972,-0.9607
56114,0.1664,-0.0972,-0.9607
56122,0.1664,-0.0972,-0.9607
56129,0.1664,-0.0972,-0.9607
56171,0.1666,-0.0970,-0.9608
56179,0.1669,-0.0970,-0.9608
56187,0.1669,-0.0970,-0.9609
56195,0.1669,-0.0970,-0.9609
56203,0.1669,-0.0970,-0.9609
56213,0.1670,-0.0969,-0.9609
56220,0.1670,-0.0969,-0.9609
56234,0.1670,-0.0969,-0.9609
56242,0.1670,-0.0969,-0.9609
56250,0.1670,-0.0969,-0.9609
56265,0.1670,-0.0969,-0.9609
56278,0.1670,-0.0969,-0.9609
56285,0.1670,-0.0969,-0.9609
56293,0.1670,-0.0969,-0.9609
56312,0.1669,-0.0969,-0.9608
56320,0.1667,-0.0969,-0.9608
56328,0.1667,-0.0969,-0.9608
56386,0.1664,-0.0969,-0.9606
56392,0.1664,-0.0969,-0.9606
56401,0.1663,-0.0970,-0.9606
56409,0.1663,-0.0970,-0.9606
56417,0.1663,-0.0970,-0.9606
56425,0.1663,-0.0970,-0.9606
56433,0.1661,-0.0972,-0.9606
56441,0.1661,-0.0973,-0.9606
56449,0.1661,-0.0973,-0.9606
56457,0.1661,-0.0974,-0.9606
56467,0.1661,-0.0975,-0.9606
56475,0.1661,-0.0977,-0.9606
56484,0.1663,-0.0977,-0.9607
56492,0.1663,-0.0977,-0.9607
56499,0.1663,-0.0977,-0.9607
56517,0.1664,-0.0977,-0.9607
56525,0.1665,-0.0977,-0.9607
56559,0.1669,-0.0975,-0.9607
56565,0.1669,-0.0975,-0.9607
56581,0.1671,-0.0974,-0.9607
56589,0.1672,-0.0974,-0.9607
56599,0.1676,-0.0973,-0.9607
56606,0.1676,-0.0973,-0.9607
56622,0.1678,-0.0970,-0.9607
56630,0.1680,-0.0970,-0.9607
56638,0.1681,-0.0969,-0.9607
56646,0.1682,-0.0969,-0.9607
56654,0.1682,-0.0969,-0.9607
56664,0.1683,-0.0968,-0.9607
56672,0.1683,-0.0968,-0.9607
56680,0.1683,-0.0968,-0.9607
56688,0.1685,-0.0968,-0.9608
56696,0.1685,-0.0967,-0.9608
56712,0.1685,-0.0967,-0.9608
56722,0.1683,-0.0967,-0.9608
56769,0.1683,-0.0967,-0.9608
56776,0.1683,-0.0968,-0.9608
56785,0.1682,-0.0968,-0.9609
56795,0.1682,-0.0968,-0.9609
56803,0.1682,-0.0969,-0.9609
56818,0.1680,-0.0970,-0.9609
56825,0.1680,-0.0970,-0.9609
56833,0.1678,-0.0972,-0.9608
56841,0.1677,-0.0972,-0.9608
56849,0.1677,-0.0973,-0.9608
56859,0.1676,-0.0973,-0.9607
56867,0.1675,-0.0974,-0.9607
56875,0.1675,-0.0974,-0.9607
56883,0.1674,-0.0975,-0.9607
56891,0.1672,-0.0975,-0.9606
56899,0.1671,-0.0977,-0.9606
56907,0.1671,-0.0977,-0.9606
56915,0.1670,-0.0978,-0.9606
56952,0.1667,-0.0979,-0.9606
56959,0.1667,-0.0979,-0.9606
56967,0.1667,-0.0979,-0.9606
56975,0.1667,-0.0979,-0.9606
56983,0.1667,-0.0979,-0.9607
56993,0.1669,-0.0978,-0.9607
57001,0.1669,-0.0978,-0.9607
57009,0.1670,-0.0978,-0.9607
57017,0.1671,-0.0977,-0.9608
57025,0.1672,-0.0975,-0.9608
57033,0.1674,-0.0975,-0.9608
57041,0.1675,-0.0974,-0.9608
57049,0.1676,-0.0973,-0.9608
57059,0.1680,-0.0970,-0.9608
57067,0.1680,-0.0970,-0.9608
57075,0.1681,-0.0970,-0.9608
57083,0.1682,-0.0969,-0.9608
57092,0.1683,-0.0967,-0.9608
57100,0.1683,-0.0967,-0.9608
57108,0.1685,-0.0967,-0.9608
57116,0.1686,-0.0966,-0.9608
57153,0.1686,-0.0964,-0.9608
57160,0.1686,-0.0964,-0.9608
57168,0.1686,-0.0964,-0.9609
57176,0.1686,-0.0964,-0.9609
57184,0.1686,-0.0966,-0.9609
57194,0.1685,-0.0966,-0.9609
57202,0.1685,-0.0966,-0.9609
57210,0.1685,-0.0967,-0.9609
57225,0.1685,-0.0968,-0.9611
57238,0.1685,-0.0969,-0.9611
57245,0.1685,-0.0969,-0.9611
57255,0.1685,-0.0970,-0.9611
57269,0.1685,-0.0972,-0.9611
57276,0.1685,-0.0973,-0.9612
57284,0.1685,-0.0974,-0.9612
57292,0.1685,-0.0975,-0.9611
57300,0.1685,-0.0975,-0.9611
57308,0.1685,-0.0977,-0.9611
57320,0.1685,-0.0977,-0.9611
57330,0.1686,-0.0978,-0.9611
57337,0.1686,-0.0978,-0.9611
57345,0.1686,-0.0979,-0.9611
57353,0.1686,-0.0979,-0.9609
57361,0.1686,-0.0979,-0.9609
57369,0.1686,-0.0979,-0.9609
57420,0.1686,-0.0978,-0.9607
57428,0.1686,-0.0978,-0.9607
57436,0.1686,-0.0978,-0.9607
57446,0.1685,-0.0977,-0.9606
57453,0.1685,-0.0977,-0.9606
57469,0.1683,-0.0975,-0.9606
57477,0.1683,-0.0975,-0.9606
57485,0.1682,-0.0975,-0.9606
57493,0.1682,-0.0975,-0.9606
57501,0.1682,-0.0975,-0.9604
57511,0.1682,-0.0975,-0.9604
57528,0.1682,-0.0975,-0.9604
57537,0.1685,-0.0975,-0.9604
57545,0.1685,-0.0975,-0.9604
57552,0.1685,-0.0975,-0.9604
57568,0.1687,-0.0977,-0.9604
57612,0.1689,-0.0977,-0.9606
57620,0.1689,-0.0977,-0.9607
57628,0.1689,-0.0977,-0.9607
57636,0.1689,-0.0977,-0.9607
57651,0.1688,-0.0975,-0.9607
57658,0.1688,-0.0975,-0.9607
57666,0.1687,-0.0975,-0.9607
57674,0.1686,-0.0974,-0.9607
57682,0.1685,-0.0974,-0.9607
57690,0.1683,-0.0973,-0.9607
57698,0.1682,-0.0973,-0.9607
57708,0.1681,-0.0972,-0.9607
57716,0.1680,-0.0972,-0.9607
57724,0.1678,-0.0972,-0.9607
57733,0.1677,-0.0970,-0.9607
57743,0.1676,-0.0970,-0.9607
57751,0.1676,-0.0970,-0.9607
57759,0.1675,-0.0969,-0.9607
57805,0.1676,-0.0970,-0.9606
57812,0.1676,-0.0970,-0.9604
57820,0.1676,-0.0970,-0.9604
57830,0.1676,-0.0970,-0.9604
57844,0.1676,-0.0972,-0.9603
57852,0.1676,-0.0972,-0.9603
57860,0.1676,-0.0972,-0.9603
57868,0.1676,-0.0973,-0.9603
57876,0.1676,-0.0973,-0.9603
57884,0.1676,-0.0973,-0.9603
57894,0.1676,-0.0973,-0.9603
57902,0.1675,-0.0973,-0.9603
57910,0.1675,-0.0974,-0.9603
57918,0.1676,-0.0974,-0.9603
57926,0.1676,-0.0974,-0.9603
57934,0.1676,-0.0974,-0.9603
57944,0.1676,-0.0974,-0.9603
57952,0.1677,-0.0975,-0.9603
57986,0.1678,-0.0977,-0.9603
57993,0.1678,-0.0977,-0.9603
58001,0.1678,-0.0977,-0.9603
58009,0.1678,-0.0977,-0.9603
58017,0.1677,-0.0977,-0.9603
58027,0.1677,-0.0977,-0.9603
58036,0.1677,-0.0977,-0.9603
58044,0.1677,-0.0977,-0.9603
58052,0.1676,-0.0977,-0.9603
58060,0.1676,-0.0977,-0.9603
58068,0.1675,-0.0975,-0.9603
58076,0.1675,-0.0975,-0.9604
58084,0.1674,-0.0974,-0.9604
58094,0.1674,-0.0974,-0.9604
58102,0.1674,-0.0974,-0.9604
58110,0.1672,-0.0973,-0.9606
58118,0.1672,-0.0973,-0.9606
58126,0.1672,-0.0972,-0.9606
58134,0.1672,-0.0972,-0.9607
58142,0.1672,-0.0970,-0.9607
58152,0.1672,-0.0970,-0.9607
58187,0.1672,-0.0970,-0.9608
58193,0.1672,-0.0970,-0.9608
58211,0.1672,-0.0970,-0.9609
58227,0.1671,-0.0970,-0.9609
58234,0.1671,-0.0970,-0.9609
58242,0.1670,-0.0970,-0.9609
58257,0.1669,-0.0970,-0.9609
58271,0.1669,-0.0972,-0.9608
58279,0.1667,-0.0972,-0.9608
58289,0.1667,-0.0972,-0.9608
58297,0.1667,-0.0972,-0.9608
58305,0.1666,-0.0972,-0.9608
58313,0.1666,-0.0973,-0.9608
58321,0.1666,-0.0973,-0.9608
58337,0.1666,-0.0973,-0.9608
58401,0.1669,-0.0970,-0.9607
58407,0.1669,-0.0970,-0.9607
58420,0.1670,-0.0968,-0.9607
58427,0.1670,-0.0968,-0.9607
58435,0.1670,-0.0967,-0.9607
58443,0.1670,-0.0966,-0.9607
58451,0.1669,-0.0966,-0.9607
58459,0.1669,-0.0964,-0.9607
58467,0.1669,-0.0964,-0.9606
58475,0.1669,-0.0963,-0.9606
58485,0.1667,-0.0963,-0.9606
58493,0.1667,-0.0963,-0.9606
58501,0.1667,-0.0964,-0.9606
58509,0.1666,-0.0964,-0.9606
58517,0.1666,-0.0964,-0.9606
58525,0.1666,-0.0966,-0.9606
58533,0.1666,-0.0967,-0.9606
58541,0.1666,-0.0968,-0.9606
58551,0.1666,-0.0969,-0.9606
58561,0.1666,-0.0970,-0.9606
58569,0.1666,-0.0972,-0.9606
58577,0.1667,-0.0972,-0.9606
58585,0.1667,-0.0973,-0.9606
58593,0.1667,-0.0974,-0.9606
58601,0.1667,-0.0975,-0.9607
58609,0.1667,-0.0977,-0.9607
58643,0.1667,-0.0979,-0.9608
58651,0.1667,-0.0979,-0.9608
58659,0.1667,-0.0980,-0.9608
58667,0.1667,-0.0980,-0.9608
58675,0.1667,-0.0980,-0.9608
58685,0.1667,-0.0980,-0.9608
58693,0.1667,-0.0980,-0.9609
58701,0.1667,-0.0980,-0.9608
58709,0.1667,-0.0980,-0.9608
58717,0.1667,-0.0979,-0.9608
58725,0.1667,-0.0979,-0.9608
58733,0.1667,-0.0978,-0.9607
58741,0.1667,-0.0978,-0.9607
58751,0.1667,-0.0977,-0.9607
58759,0.1669,-0.0977,-0.9606
58769,0.1669,-0.0975,-0.9606
58777,0.1669,-0.0975,-0.9606
58785,0.1670,-0.0974,-0.9604
58793,0.1670,-0.0973,-0.9604
58801,0.1670,-0.0973,-0.9604
58809,0.1671,-0.0972,-0.9604
58854,0.1674,-0.0969,-0.9604
58867,0.1674,-0.0969,-0.9604
58885,0.1675,-0.0968,-0.9606
58892,0.1675,-0.0968,-0.9606
58908,0.1674,-0.0968,-0.9606
58916,0.1674,-0.0968,-0.9606
58924,0.1674,-0.0968,-0.9606
58932,0.1674,-0.0968,-0.9607
58940,0.1672,-0.0968,-0.9607
58950,0.1672,-0.0968,-0.9607
58959,0.1671,-0.0968,-0.9608
58966,0.1671,-0.0968,-0.9608
58976,0.1669,-0.0968,-0.9608
58984,0.1669,-0.0968,-0.9609
58992,0.1667,-0.0968,-0.9609
58999,0.1667,-0.0968,-0.9609
59042,0.1665,-0.0972,-0.9611
59048,0.1665,-0.0972,-0.9611
59064,0.1664,-0.0972,-0.9609
59072,0.1665,-0.0972,-0.9609
59082,0.1665,-0.0973,-0.9609
59090,0.1665,-0.0973,-0.9609
59098,0.1665,-0.0973,-0.9609
59106,0.1665,-0.0973,-0.9609
59114,0.1665,-0.0973,-0.9608
59122,0.1665,-0.0972,-0.9608
59130,0.1665,-0.0972,-0.9608
59138,0.1665,-0.0970,-0.9608
59148,0.1664,-0.0969,-0.9609
59155,0.1664,-0.0969,-0.9609
59171,0.1664,-0.0966,-0.9611
59181,0.1661,-0.0962,-0.9611
59188,0.1661,-0.0962,-0.9611
59206,0.1659,-0.0956,-0.9611
59239,0.1655,-0.0948,-0.9608
59252,0.1654,-0.0947,-0.9607
59261,0.1654,-0.0946,-0.9606
59269,0.1653,-0.0945,-0.9604
59279,0.1653,-0.0944,-0.9603
59293,0.1653,-0.0942,-0.9601
59301,0.1653,-0.0942,-0.9601
59309,0.1653,-0.0942,-0.9600
59317,0.1653,-0.0942,-0.9600
59325,0.1654,-0.0942,-0.9598
59333,0.1654,-0.0944,-0.9598
59343,0.1655,-0.0944,-0.9598
59351,0.1655,-0.0945,-0.9598
59359,0.1656,-0.0945,-0.9598
59367,0.1658,-0.0946,-0.9600
59385,0.1659,-0.0947,-0.9601
59392,0.1660,-0.0948,-0.9601
59400,0.1661,-0.0948,-0.9602
59451,0.1664,-0.0952,-0.9606
59458,0.1665,-0.0953,-0.9607
59466,0.1665,-0.0953,-0.9607
59476,0.1665,-0.0953,-0.9608
59484,0.1665,-0.0953,-0.9608
59492,0.1665,-0.0955,-0.9609
59500,0.1665,-0.0955,-0.9609
59508,0.1665,-0.0955,-0.9609
59516,0.1665,-0.0955,-0.9609
59524,0.1665,-0.0955,-0.9609
59532,0.1664,-0.0955,-0.9609
59545,0.1664,-0.0955,-0.9609
59552,0.1664,-0.0955,-0.9609
59561,0.1664,-0.0955,-0.9609
59569,0.1664,-0.0956,-0.9609
59577,0.1663,-0.0956,-0.9609
59587,0.1663,-0.0956,-0.9609
59595,0.1663,-0.0957,-0.9609
59639,0.1664,-0.0959,-0.9608
59647,0.1664,-0.0959,-0.9607
59655,0.1664,-0.0961,-0.9607
59663,0.1664,-0.0961,-0.9606
59678,0.1664,-0.0962,-0.9606
59685,0.1664,-0.0963,-0.9606
59693,0.1664,-0.0963,-0.9606
59701,0.1664,-0.0964,-0.9606
59709,0.1664,-0.0964,-0.9606
59717,0.1664,-0.0966,-0.9606
59725,0.1664,-0.0966,-0.9607
59735,0.1665,-0.0966,-0.9607
59743,0.1665,-0.0967,-0.9607
59751,0.1665,-0.0967,-0.9607
59759,0.1665,-0.0967,-0.9608
59767,0.1665,-0.0967,-0.9608
59775,0.1665,-0.0967,-0.9608
59783,0.1666,-0.0966,-0.9609
59793,0.1666,-0.0966,-0.9609
59840,0.1667,-0.0963,-0.9611
59847,0.1667,-0.0963,-0.9611
59854,0.1667,-0.0963,-0.9611
59865,0.1667,-0.0962,-0.9609
59873,0.1666,-0.0962,-0.9609
59887,0.1666,-0.0962,-0.9609
59902,0.1666,-0.0962,-0.9609
59910,0.1665,-0.0962,-0.9609
59918,0.1665,-0.0962,-0.9608
59928,0.1664,-0.0962,-0.9608
59936,0.1664,-0.0962,-0.9608
59944,0.1664,-0.0962,-0.9608
59952,0.1663,-0.0963,-0.9608
59960,0.1663,-0.0963,-0.9608
59968,0.1663,-0.0963,-0.9608
59976,0.1663,-0.0963,-0.9608
60021,0.1664,-0.0966,-0.9608
60029,0.1664,-0.0966,-0.9608
60037,0.1664,-0.0966,-0.9608
60045,0.1664,-0.0966,-0.9608
60063,0.1664,-0.0966,-0.9608
60070,0.1664,-0.0966,-0.9608
60078,0.1664,-0.0966,-0.9607
60086,0.1664,-0.0964,-0.9607
60094,0.1664,-0.0964,-0.9607
60102,0.1664,-0.0964,-0.9607
60110,0.1664,-0.0964,-0.9607
60120,0.1664,-0.0966,-0.9607
60128,0.1664,-0.0966,-0.9607
60136,0.1664,-0.0966,-0.9606
60144,0.1664,-0.0964,-0.9606
60152,0.1664,-0.0964,-0.9607
60160,0.1664,-0.0964,-0.9607
60169,0.1664,-0.0964,-0.9607
60177,0.1664,-0.0964,-0.9607
60187,0.1664,-0.0964,-0.9607
60197,0.1664,-0.0964,-0.9607
60205,0.1665,-0.0964,-0.9607
60220,0.1665,-0.0964,-0.9608
60234,0.1665,-0.0964,-0.9608
60242,0.1665,-0.0964,-0.9608
60275,0.1665,-0.0966,-0.9608
60288,0.1665,-0.0966,-0.9608
60296,0.1665,-0.0966,-0.9608
60304,0.1664,-0.0966,-0.9608
60314,0.1664,-0.0966,-0.9608
60322,0.1664,-0.0966,-0.9608
60330,0.1664,-0.0966,-0.9608
60338,0.1664,-0.0966,-0.9608
60346,0.1664,-0.0966,-0.9608
60354,0.1663,-0.0964,-0.9608
60362,0.1663,-0.0964,-0.9609
60370,0.1663,-0.0964,-0.9609
60380,0.1663,-0.0963,-0.9609
60395,0.1663,-0.0962,-0.9609
60405,0.1663,-0.0961,-0.9611
60413,0.1663,-0.0961,-0.9611
60421,0.1663,-0.0959,-0.9611
60429,0.1663,-0.0959,-0.9611
60437,0.1663,-0.0958,-0.9611
60488,0.1663,-0.0956,-0.9609
60496,0.1661,-0.0956,-0.9609
60504,0.1661,-0.0956,-0.9608
60514,0.1661,-0.0956,-0.9608
60522,0.1661,-0.0956,-0.9608
60530,0.1661,-0.0957,-0.9608
60538,0.1661,-0.0957,-0.9608
60546,0.1661,-0.0957,-0.9608
60554,0.1661,-0.0957,-0.9608
60561,0.1661,-0.0957,-0.9608
60579,0.1661,-0.0958,-0.9607
60587,0.1663,-0.0958,-0.9607
60595,0.1663,-0.0958,-0.9607
60605,0.1664,-0.0959,-0.9608
60613,0.1664,-0.0959,-0.9608
60621,0.1664,-0.0959,-0.9608
60629,0.1665,-0.0961,-0.9608
60637,0.1665,-0.0961,-0.9608
60674,0.1667,-0.0962,-0.9608
60681,0.1667,-0.0962,-0.9608
60689,0.1669,-0.0962,-0.9608
60697,0.1669,-0.0963,-0.9608
60705,0.1669,-0.0963,-0.9608
60715,0.1669,-0.0963,-0.9608
60723,0.1669,-0.0963,-0.9608
60731,0.1669,-0.0963,-0.9608
60739,0.1669,-0.0963,-0.9608
60747,0.1669,-0.0963,-0.9608
60755,0.1667,-0.0963,-0.9608
60763,0.1667,-0.0963,-0.9608
60771,0.1667,-0.0963,-0.9608
60781,0.1666,-0.0963,-0.9608
60789,0.1666,-0.0963,-0.9608
60798,0.1666,-0.0962,-0.9608
60824,0.1666,-0.0962,-0.9607
60879,0.1713,-0.0952,-0.9598
60886,0.1727,-0.0947,-0.9596
60903,0.1752,-0.0936,-0.9592
60910,0.1761,-0.0930,-0.9590
60918,0.1769,-0.0927,-0.9589
60926,0.1771,-0.0923,-0.9589
60934,0.1771,-0.0920,-0.9589
60942,0.1766,-0.0919,-0.9589
60950,0.1759,-0.0918,-0.9590
60958,0.1747,-0.0918,-0.9591
60968,0.1733,-0.0919,-0.9594
60976,0.1716,-0.0919,-0.9595
60984,0.1698,-0.0922,-0.9598
60992,0.1678,-0.0923,-0.9601
61000,0.1659,-0.0925,-0.9603
61010,0.1639,-0.0928,-0.9607
61018,0.1620,-0.0931,-0.9609
61026,0.1603,-0.0934,-0.9613
61060,0.1553,-0.0947,-0.9622
61067,0.1547,-0.0951,-0.9623
61075,0.1543,-0.0956,-0.9624
61083,0.1541,-0.0961,-0.9624
61091,0.1542,-0.0964,-0.9624
61102,0.1545,-0.0969,-0.9624
61110,0.1550,-0.0974,-0.9623
61118,0.1556,-0.0979,-0.9622
61126,0.1565,-0.0984,-0.9620
61134,0.1573,-0.0989,-0.9619
61142,0.1583,-0.0992,-0.9617
61150,0.1593,-0.0995,-0.9614
61158,0.1603,-0.0996,-0.9612
61168,0.1614,-0.0997,-0.9611
61176,0.1624,-0.0996,-0.9608
61184,0.1632,-0.0995,-0.9606
61192,0.1641,-0.0992,-0.9603
61207,0.1656,-0.0985,-0.9600
61216,0.1663,-0.0980,-0.9598
61223,0.1667,-0.0975,-0.9597
61258,0.1678,-0.0957,-0.9597
61265,0.1680,-0.0955,-0.9597
61280,0.1678,-0.0948,-0.9598
61287,0.1677,-0.0946,-0.9600
61297,0.1676,-0.0945,-0.9601
61305,0.1675,-0.0944,-0.9603
61313,0.1672,-0.0942,-0.9604
61321,0.1670,-0.0942,-0.9606
61329,0.1667,-0.0944,-0.9607
61337,0.1666,-0.0944,-0.9608
61345,0.1664,-0.0945,-0.9609
61353,0.1661,-0.0946,-0.9609
61364,0.1660,-0.0947,-0.9611
61372,0.1659,-0.0947,-0.9611
61380,0.1658,-0.0947,-0.9612
61388,0.1656,-0.0946,-0.9612
61396,0.1656,-0.0942,-0.9613
61405,0.1659,-0.0935,-0.9613
61424,0.1671,-0.0906,-0.9614
61483,0.1826,-0.0671,-0.9614
61490,0.1847,-0.0671,-0.9614
61500,0.1866,-0.0647,-0.9613
61508,0.1864,-0.0649,-0.9613
61516,0.1854,-0.0663,-0.9613
61524,0.1836,-0.0686,-0.9613
61531,0.1836,-0.0686,-0.9613
61547,0.1785,-0.0758,-0.9613
61555,0.1754,-0.0802,-0.9612
61565,0.1689,-0.0894,-0.9611
61572,0.1689,-0.0894,-0.9611
61588,0.1628,-0.0980,-0.9608
61596,0.1600,-0.1019,-0.9607
61604,0.1575,-0.1055,-0.9607
61612,0.1550,-0.1085,-0.9606
61620,0.1528,-0.1113,-0.9606
61674,0.1444,-0.1178,-0.9611
61689,0.1451,-0.1157,-0.9613
61696,0.1451,-0.1143,-0.9613
61704,0.1461,-0.1143,-0.9613
61713,0.1488,-0.1106,-0.9613
61720,0.1488,-0.1106,-0.9613
61736,0.1519,-0.1068,-0.9613
61744,0.1534,-0.1051,-0.9613
61752,0.1548,-0.1035,-0.9613
61765,0.1573,-0.1007,-0.9613
61772,0.1583,-0.0996,-0.9612
61780,0.1592,-0.0986,-0.9612
61788,0.1600,-0.0980,-0.9612
61796,0.1606,-0.0974,-0.9612
61804,0.1611,-0.0972,-0.9612
61812,0.1616,-0.0969,-0.9612
61820,0.1620,-0.0969,-0.9611
61830,0.1622,-0.0969,-0.9611
61840,0.1625,-0.0970,-0.9609
61848,0.1626,-0.0973,-0.9609
61856,0.1628,-0.0975,-0.9608
61864,0.1630,-0.0979,-0.9608
61872,0.1631,-0.0981,-0.9607
61880,0.1631,-0.0985,-0.9606
61888,0.1632,-0.0989,-0.9606
61933,0.1639,-0.1001,-0.9602
61947,0.1642,-0.1005,-0.9601
61955,0.1643,-0.1006,-0.9601
61965,0.1644,-0.1006,-0.9601
61973,0.1646,-0.1007,-0.9601
61981,0.1647,-0.1007,-0.9601
61989,0.1648,-0.1007,-0.9601
61997,0.1649,-0.1006,-0.9601
62005,0.1650,-0.1006,-0.9601
62014,0.1652,-0.1005,-0.9601
62022,0.1652,-0.1005,-0.9601
62032,0.1653,-0.1003,-0.9601
62042,0.1653,-0.1001,-0.9601
62049,0.1653,-0.1001,-0.9601
62065,0.1654,-0.0997,-0.9602
62073,0.1654,-0.0996,-0.9602
62081,0.1655,-0.0995,-0.9602
62089,0.1655,-0.0994,-0.9601
62124,0.1658,-0.0992,-0.9601
62131,0.1658,-0.0992,-0.9601
62139,0.1656,-0.0992,-0.9600
62147,0.1656,-0.0994,-0.9600
62155,0.1656,-0.0994,-0.9600
62165,0.1655,-0.0995,-0.9600
62173,0.1654,-0.0996,-0.9600
62181,0.1654,-0.0997,-0.9600
62189,0.1653,-0.0997,-0.9600
62197,0.1652,-0.0997,-0.9600
62212,0.1650,-0.1000,-0.9600
62228,0.1649,-0.1001,-0.9601
62236,0.1648,-0.1001,-0.9601
62246,0.1648,-0.1001,-0.9602
62261,0.1648,-0.1002,-0.9602
62268,0.1648,-0.1002,-0.9603
62276,0.1648,-0.1002,-0.9603
62284,0.1648,-0.1002,-0.9603
62318,0.1650,-0.1001,-0.9604
62326,0.1652,-0.1002,-0.9606
62334,0.1652,-0.1002,-0.9606
62342,0.1652,-0.1003,-0.9604
62350,0.1652,-0.1005,-0.9604
62360,0.1652,-0.1006,-0.9604
62368,0.1652,-0.1006,-0.9604
62376,0.1652,-0.1007,-0.9603
62384,0.1652,-0.1008,-0.9603
62392,0.1652,-0.1008,-0.9603
62400,0.1652,-0.1010,-0.9602
62408,0.1650,-0.1010,-0.9602
62416,0.1650,-0.1011,-0.9601
62426,0.1650,-0.1011,-0.9601
62441,0.1650,-0.1011,-0.9600
62460,0.1650,-0.1010,-0.9600
62476,0.1650,-0.1010,-0.9600
62484,0.1650,-0.1008,-0.9600
62535,0.1650,-0.1005,-0.9600
62542,0.1649,-0.1003,-0.9600
62550,0.1649,-0.1003,-0.9600
62560,0.1649,-0.1002,-0.9601
62567,0.1649,-0.1002,-0.9601
62583,0.1649,-0.1002,-0.9601
62591,0.1648,-0.1002,-0.9602
62599,0.1648,-0.1002,-0.9602
62607,0.1648,-0.1001,-0.9602
62615,0.1647,-0.1001,-0.9602
62625,0.1647,-0.1001,-0.9603
62634,0.1646,-0.1001,-0.9603
62641,0.1646,-0.1001,-0.9603
62651,0.1646,-0.1000,-0.9603
62659,0.1646,-0.1000,-0.9604
62667,0.1646,-0.0999,-0.9604
62675,0.1646,-0.0999,-0.9604
62682,0.1646,-0.0999,-0.9604
62716,0.1649,-0.1000,-0.9603
62723,0.1649,-0.1000,-0.9603
62731,0.1650,-0.1001,-0.9603
62739,0.1652,-0.1001,-0.9603
62747,0.1653,-0.1002,-0.9603
62757,0.1654,-0.1002,-0.9602
62765,0.1655,-0.1003,-0.9602
62773,0.1655,-0.1005,-0.9602
62781,0.1656,-0.1005,-0.9602
62789,0.1658,-0.1005,-0.9602
62797,0.1658,-0.1006,-0.9601
62805,0.1659,-0.1006,-0.9601
62813,0.1659,-0.1007,-0.9601
62826,0.1659,-0.1008,-0.9600
62833,0.1659,-0.1010,-0.9600
62841,0.1659,-0.1010,-0.9600
62849,0.1659,-0.1010,-0.9600
62859,0.1659,-0.1011,-0.9600
62867,0.1658,-0.1011,-0.9600
62875,0.1658,-0.1011,-0.9600
62921,0.1654,-0.1011,-0.9601
62928,0.1654,-0.1011,-0.9601
62937,0.1653,-0.1011,-0.9601
62946,0.1653,-0.1011,-0.9601
62953,0.1653,-0.1011,-0.9601
62961,0.1653,-0.1011,-0.9601
62969,0.1653,-0.1011,-0.9601
62977,0.1654,-0.1011,-0.9601
62985,0.1654,-0.1011,-0.9601
62993,0.1654,-0.1011,-0.9601
63001,0.1654,-0.1010,-0.9601
63011,0.1654,-0.1010,-0.9601
63019,0.1654,-0.1010,-0.9601
63027,0.1654,-0.1010,-0.9601
63035,0.1655,-0.1010,-0.9601
63043,0.1655,-0.1010,-0.9601
63051,0.1655,-0.1010,-0.9601
63061,0.1656,-0.1008,-0.9602
63069,0.1656,-0.1008,-0.9602
63103,0.1659,-0.1008,-0.9603
63110,0.1659,-0.1008,-0.9603
63118,0.1659,-0.1008,-0.9603
63126,0.1659,-0.1008,-0.9603
63134,0.1659,-0.1008,-0.9603
63144,0.1660,-0.1008,-0.9603
63152,0.1660,-0.1008,-0.9603
63160,0.1660,-0.1008,-0.9603
63167,0.1660,-0.1008,-0.9603
63183,0.1659,-0.1008,-0.9602
63191,0.1659,-0.1008,-0.9602
63200,0.1659,-0.1008,-0.9602
63210,0.1659,-0.1010,-0.9601
63223,0.1658,-0.1010,-0.9601
63239,0.1658,-0.1010,-0.9600
63254,0.1656,-0.1011,-0.9600
63263,0.1655,-0.1011,-0.9600
63304,0.1654,-0.1012,-0.9600
63311,0.1654,-0.1013,-0.9601
63319,0.1653,-0.1013,-0.9601
63327,0.1653,-0.1013,-0.9601
63337,0.1652,-0.1013,-0.9601
63345,0.1652,-0.1013,-0.9602
63353,0.1652,-0.1013,-0.9602
63361,0.1650,-0.1013,-0.9602
63369,0.1650,-0.1013,-0.9602
63377,0.1649,-0.1013,-0.9603
63385,0.1649,-0.1012,-0.9603
63393,0.1648,-0.1012,-0.9603
63403,0.1648,-0.1012,-0.9603
63411,0.1648,-0.1011,-0.9603
63419,0.1648,-0.1011,-0.9603
63427,0.1648,-0.1010,-0.9603
63435,0.1648,-0.1008,-0.9603
63450,0.1648,-0.1007,-0.9602
63457,0.1648,-0.1006,-0.9602
63511,0.1653,-0.1003,-0.9600
63518,0.1654,-0.1002,-0.9598
63528,0.1654,-0.1002,-0.9598
63536,0.1655,-0.1002,-0.9598
63545,0.1656,-0.1002,-0.9598
63553,0.1656,-0.1003,-0.9597
63561,0.1658,-0.1003,-0.9597
63569,0.1658,-0.1003,-0.9597
63577,0.1658,-0.1003,-0.9598
63585,0.1659,-0.1005,-0.9598
63595,0.1659,-0.1005,-0.9598
63603,0.1659,-0.1005,-0.9598
63611,0.1659,-0.1006,-0.9598
63619,0.1660,-0.1006,-0.9600
63627,0.1660,-0.1006,-0.9600
63635,0.1660,-0.1006,-0.9600
63643,0.1660,-0.1007,-0.9600
63651,0.1660,-0.1007,-0.9601
63661,0.1660,-0.1007,-0.9601
63671,0.1660,-0.1007,-0.9601
63690,0.1661,-0.1007,-0.9601
63698,0.1661,-0.1006,-0.9601
63706,0.1661,-0.1006,-0.9601
63714,0.1661,-0.1006,-0.9601
63751,0.1661,-0.1005,-0.9601
63758,0.1661,-0.1005,-0.9600
63766,0.1661,-0.1005,-0.9600
63774,0.1661,-0.1003,-0.9600
63782,0.1661,-0.1003,-0.9598
63792,0.1661,-0.1003,-0.9598
63800,0.1661,-0.1003,-0.9597
63808,0.1660,-0.1003,-0.9597
63816,0.1660,-0.1003,-0.9597
63824,0.1660,-0.1003,-0.9597
63832,0.1660,-0.1003,-0.9597
63840,0.1660,-0.1003,-0.9596
63849,0.1661,-0.1005,-0.9596
63859,0.1661,-0.1005,-0.9597
63866,0.1661,-0.1005,-0.9597
63876,0.1661,-0.1005,-0.9597
63884,0.1661,-0.1005,-0.9598
63892,0.1661,-0.1005,-0.9598
63899,0.1661,-0.1005,-0.9598
63915,0.1663,-0.1006,-0.9601
63963,0.1663,-0.1006,-0.9603
63977,0.1661,-0.1006,-0.9603
63987,0.1661,-0.1005,-0.9603
63995,0.1661,-0.1005,-0.9603
64003,0.1660,-0.1005,-0.9603
64011,0.1660,-0.1003,-0.9603
64019,0.1660,-0.1003,-0.9603
64027,0.1659,-0.1003,-0.9602
64035,0.1659,-0.1002,-0.9602
64043,0.1658,-0.1002,-0.9602
64053,0.1658,-0.1002,-0.9602
64061,0.1656,-0.1001,-0.9601
64069,0.1656,-0.1001,-0.9601
64079,0.1655,-0.1001,-0.9601
64087,0.1655,-0.1001,-0.9600
64103,0.1654,-0.1001,-0.9600
64111,0.1654,-0.1001,-0.9600
64146,0.1653,-0.1002,-0.9598
64154,0.1653,-0.1003,-0.9598
64162,0.1653,-0.1003,-0.9598
64170,0.1653,-0.1005,-0.9600
64178,0.1653,-0.1005,-0.9600
64188,0.1653,-0.1006,-0.9601
64196,0.1654,-0.1007,-0.9601
64210,0.1654,-0.1007,-0.9601
64224,0.1654,-0.1007,-0.9602
64238,0.1654,-0.1007,-0.9602
64246,0.1654,-0.1007,-0.9602
64256,0.1655,-0.1007,-0.9603
64270,0.1655,-0.1007,-0.9603
64280,0.1655,-0.1007,-0.9603
64288,0.1655,-0.1007,-0.9602
64296,0.1655,-0.1006,-0.9602
64304,0.1654,-0.1006,-0.9602
64312,0.1654,-0.1005,-0.9602
64346,0.1654,-0.1002,-0.9600
64353,0.1654,-0.1001,-0.9600
64361,0.1654,-0.1001,-0.9598
64369,0.1654,-0.1000,-0.9598
64377,0.1654,-0.1000,-0.9598
64387,0.1654,-0.1000,-0.9597
64395,0.1654,-0.0999,-0.9597
64403,0.1654,-0.0999,-0.9597
64411,0.1654,-0.0999,-0.9597
64419,0.1654,-0.0999,-0.9597
64427,0.1654,-0.0999,-0.9597
64435,0.1654,-0.0999,-0.9597
64443,0.1654,-0.1000,-0.9597
64453,0.1654,-0.1000,-0.9597
64462,0.1654,-0.1000,-0.9597
64476,0.1655,-0.1001,-0.9598
64487,0.1655,-0.1001,-0.9598
64495,0.1655,-0.1001,-0.9598
64503,0.1656,-0.1001,-0.9598
64511,0.1656,-0.1001,-0.9598
64562,0.1658,-0.1001,-0.9601
64569,0.1658,-0.1001,-0.9601
64577,0.1658,-0.1001,-0.9601
64587,0.1658,-0.1001,-0.9601
64595,0.1656,-0.1001,-0.9602
64603,0.1656,-0.1001,-0.9602
64611,0.1656,-0.1001,-0.9602
64619,0.1656,-0.1001,-0.9602
64627,0.1656,-0.1001,-0.9602
64635,0.1656,-0.1001,-0.9602
64643,0.1656,-0.1001,-0.9602
64653,0.1656,-0.1001,-0.9602
64661,0.1656,-0.1001,-0.9602
64669,0.1656,-0.1002,-0.9602
64677,0.1656,-0.1002,-0.9602
