sys_ms,acc_x,acc_y,acc_z
316821,-0.0297,-0.9740,-0.0081
316844,-0.0297,-0.9740,-0.0083
358534,-0.0273,-0.9849,-0.0056
359003,-0.0171,-0.9592,0.0360
359031,-0.0171,-0.9615,0.0353
359051,-0.0171,-0.9626,0.0347
359074,-0.0170,-0.9639,0.0342
359094,-0.0170,-0.9650,0.0338
359116,-0.0168,-0.9670,0.0331
359141,-0.0168,-0.9679,0.0328
359163,-0.0168,-0.9695,0.0325
359185,-0.0168,-0.9701,0.0322
359202,-0.0170,-0.9706,0.0321
359219,-0.0171,-0.9711,0.0320
359242,-0.0171,-0.9713,0.0320
359281,-0.0176,-0.9718,0.0322
359303,-0.0177,-0.9718,0.0323
359432,-0.0179,-0.9714,0.0352
359459,-0.0179,-0.9714,0.0355
359482,-0.0181,-0.9713,0.0361
359506,-0.0179,-0.9712,0.0364
359529,-0.0179,-0.9711,0.0366
359551,-0.0179,-0.9707,0.0372
359568,-0.0179,-0.9706,0.0376
359591,-0.0179,-0.9705,0.0378
359610,-0.0179,-0.9703,0.0382
359675,-0.0178,-0.9707,0.0393
359720,-0.0178,-0.9708,0.0392
359743,-0.0178,-0.9708,0.0389
359760,-0.0179,-0.9707,0.0386
359782,-0.0179,-0.9706,0.0381
359804,-0.0182,-0.9702,0.0371
359821,-0.0182,-0.9701,0.0366
359844,-0.0183,-0.9700,0.0361
359866,-0.0183,-0.9698,0.0358
359883,-0.0184,-0.9697,0.0354
359900,-0.0184,-0.9697,0.0352
359922,-0.0184,-0.9698,0.0348
359994,-0.0184,-0.9698,0.0352
360021,-0.0183,-0.9696,0.0359
360041,-0.0182,-0.9695,0.0364
360062,-0.0182,-0.9692,0.0369
360083,-0.0181,-0.9690,0.0375
360100,-0.0179,-0.9688,0.0381
360119,-0.0178,-0.9684,0.0393
360165,-0.0177,-0.9679,0.0405
360188,-0.0176,-0.9677,0.0416
360205,-0.0176,-0.9677,0.0421
360228,-0.0175,-0.9675,0.0425
360317,-0.0173,-0.9679,0.0438
360344,-0.0172,-0.9683,0.0439
360367,-0.0172,-0.9684,0.0439
360391,-0.0171,-0.9689,0.0438
360414,-0.0171,-0.9690,0.0436
360436,-0.0170,-0.9692,0.0435
360453,-0.0170,-0.9694,0.0433
360475,-0.0167,-0.9697,0.0430
360508,-0.0166,-0.9698,0.0427
360529,-0.0165,-0.9700,0.0426
360603,-0.0161,-0.9700,0.0426
360628,-0.0159,-0.9697,0.0427
360648,-0.0159,-0.9697,0.0428
360670,-0.0157,-0.9696,0.0430
360689,-0.0157,-0.9694,0.0432
360711,-0.0156,-0.9692,0.0435
360737,-0.0156,-0.9691,0.0436
360778,-0.0156,-0.9689,0.0439
360801,-0.0156,-0.9689,0.0439
360818,-0.0157,-0.9689,0.0441
360910,-0.0159,-0.9689,0.0443
360927,-0.0159,-0.9689,0.0443
360954,-0.0159,-0.9690,0.0443
360973,-0.0159,-0.9690,0.0443
360998,-0.0159,-0.9691,0.0443
361019,-0.0159,-0.9692,0.0443
361045,-0.0160,-0.9694,0.0442
361068,-0.0160,-0.9694,0.0442
361090,-0.0160,-0.9695,0.0442
361107,-0.0160,-0.9695,0.0442
361129,-0.0160,-0.9695,0.0441
361216,-0.0159,-0.9696,0.0439
361254,-0.0159,-0.9696,0.0439
361277,-0.0159,-0.9696,0.0439
361294,-0.0159,-0.9696,0.0439
361316,-0.0159,-0.9695,0.0439
361341,-0.0159,-0.9695,0.0439
361365,-0.0159,-0.9695,0.0439
361388,-0.0159,-0.9695,0.0439
361412,-0.0159,-0.9695,0.0439
361435,-0.0159,-0.9695,0.0439
361518,-0.0160,-0.9695,0.0439
361536,-0.0160,-0.9695,0.0439
361553,-0.0160,-0.9696,0.0439
361575,-0.0160,-0.9696,0.0441
361607,-0.0160,-0.9696,0.0441
361630,-0.0160,-0.9696,0.0441
361653,-0.0160,-0.9696,0.0441
361675,-0.0160,-0.9696,0.0441
361697,-0.0160,-0.9696,0.0441
361714,-0.0160,-0.9696,0.0441
361737,-0.0160,-0.9696,0.0441
361831,-0.0159,-0.9695,0.0441
361873,-0.0159,-0.9694,0.0441
361896,-0.0159,-0.9694,0.0441
361913,-0.0159,-0.9694,0.0441
361935,-0.0159,-0.9694,0.0441
361952,-0.0159,-0.9694,0.0441
361984,-0.0157,-0.9694,0.0439
362006,-0.0157,-0.9694,0.0439
362027,-0.0157,-0.9694,0.0439
362044,-0.0157,-0.9695,0.0439
362131,-0.0157,-0.9696,0.0446
362152,-0.0157,-0.9696,0.0448
362174,-0.0157,-0.9696,0.0452
362196,-0.0157,-0.9696,0.0454
362232,-0.0157,-0.9695,0.0460
362254,-0.0157,-0.9695,0.0460
362271,-0.0157,-0.9695,0.0459
362294,-0.0157,-0.9695,0.0455
362316,-0.0159,-0.9695,0.0448
362333,-0.0159,-0.9695,0.0443
362357,-0.0159,-0.9695,0.0438
362425,-0.0159,-0.9695,0.0426
362450,-0.0157,-0.9695,0.0425
362472,-0.0157,-0.9695,0.0425
362497,-0.0157,-0.9695,0.0426
362522,-0.0157,-0.9695,0.0427
362545,-0.0157,-0.9695,0.0428
362581,-0.0156,-0.9695,0.0430
362604,-0.0156,-0.9695,0.0431
362629,-0.0156,-0.9695,0.0433
362651,-0.0156,-0.9695,0.0441
362742,-0.0148,-0.9690,0.0514
362760,-0.0145,-0.9689,0.0549
362777,-0.0142,-0.9688,0.0597
362799,-0.0135,-0.9684,0.0659
362848,-0.0109,-0.9669,0.0972
362871,-0.0081,-0.9651,0.1311
362888,-0.0063,-0.9639,0.1525
362911,-0.0044,-0.9624,0.1769
362933,-0.0022,-0.9607,0.2041
362955,0.0026,-0.9563,0.2664
363050,0.0167,-0.9429,0.4504
363076,0.0227,-0.9376,0.5264
363097,0.0256,-0.9351,0.5623
363121,0.0306,-0.9304,0.6259
363143,0.0326,-0.9283,0.6515
363166,0.0341,-0.9265,0.6719
363214,0.0348,-0.9248,0.6921
363237,0.0338,-0.9257,0.6832
363254,0.0322,-0.9272,0.6661
363348,0.0101,-0.9460,0.4176
363366,0.0050,-0.9498,0.3599
363383,-0.0002,-0.9536,0.3003
363405,-0.0056,-0.9574,0.2400
363437,-0.0160,-0.9645,0.1216
363460,-0.0254,-0.9706,0.0125
363485,-0.0295,-0.9734,-0.0367
363507,-0.0367,-0.9779,-0.1215
363529,-0.0397,-0.9797,-0.1564
363546,-0.0422,-0.9813,-0.1862
363569,-0.0443,-0.9827,-0.2107
363645,-0.0487,-0.9863,-0.2611
363679,-0.0480,-0.9865,-0.2543
363701,-0.0474,-0.9862,-0.2468
363724,-0.0454,-0.9858,-0.2264
363746,-0.0443,-0.9857,-0.2145
363769,-0.0431,-0.9858,-0.2019
363789,-0.0417,-0.9863,-0.1892
363811,-0.0391,-0.9877,-0.1644
363834,-0.0377,-0.9882,-0.1530
363874,-0.0353,-0.9879,-0.1241
363969,-0.0314,-0.9821,-0.0979
363994,-0.0308,-0.9789,-0.0940
364016,-0.0306,-0.9773,-0.0931
364036,-0.0306,-0.9756,-0.0931
364060,-0.0308,-0.9728,-0.0946
364082,-0.0309,-0.9717,-0.0962
364107,-0.0309,-0.9707,-0.0980
364129,-0.0311,-0.9696,-0.1024
364152,-0.0311,-0.9694,-0.1046
364176,-0.0311,-0.9694,-0.1064
364270,-0.0276,-0.9729,-0.0895
364313,-0.0228,-0.9735,-0.0486
364336,-0.0205,-0.9731,-0.0291
364353,-0.0178,-0.9725,-0.0066
364375,-0.0149,-0.9714,0.0186
364397,-0.0081,-0.9686,0.0769
364414,-0.0044,-0.9669,0.1096
364437,-0.0004,-0.9651,0.1445
364459,0.0038,-0.9630,0.1814
364476,0.0079,-0.9611,0.2198
364574,0.0341,-0.9443,0.4736
364601,0.0420,-0.9359,0.5596
364643,0.0487,-0.9250,0.6366
364664,0.0530,-0.9136,0.6906
364688,0.0537,-0.9088,0.7043
364709,0.0535,-0.9056,0.7074
364734,0.0492,-0.9048,0.6794
364757,0.0452,-0.9070,0.6486
364781,0.0337,-0.9148,0.5571
364856,0.0004,-0.9396,0.2946
364874,-0.0088,-0.9460,0.2217
364892,-0.0181,-0.9524,0.1490
364914,-0.0270,-0.9583,0.0779
364963,-0.0509,-0.9716,-0.1200
364983,-0.0638,-0.9780,-0.2338
365000,-0.0690,-0.9812,-0.2837
365020,-0.0732,-0.9845,-0.3284
365042,-0.0767,-0.9880,-0.3671
365064,-0.0790,-0.9916,-0.3997
365085,-0.0806,-0.9985,-0.4452
365179,-0.0698,-1.0066,-0.4492
365203,-0.0616,-1.0051,-0.4154
365224,-0.0573,-1.0037,-0.3934
365245,-0.0525,-1.0017,-0.3689
365264,-0.0477,-0.9995,-0.3428
365286,-0.0385,-0.9945,-0.2876
365308,-0.0342,-0.9918,-0.2600
365344,-0.0262,-0.9862,-0.2072
365367,-0.0229,-0.9833,-0.1829
365384,-0.0176,-0.9781,-0.1403
365477,-0.0114,-0.9698,-0.0747
365497,-0.0110,-0.9692,-0.0686
365519,-0.0112,-0.9691,-0.0624
365541,-0.0116,-0.9695,-0.0618
365566,-0.0122,-0.9701,-0.0626
365589,-0.0137,-0.9718,-0.0676
365614,-0.0144,-0.9728,-0.0713
365636,-0.0160,-0.9750,-0.0798
365658,-0.0167,-0.9760,-0.0845
365675,-0.0175,-0.9769,-0.0891
365700,-0.0181,-0.9779,-0.0936
365783,-0.0201,-0.9811,-0.1115
365809,-0.0205,-0.9814,-0.1155
365832,-0.0208,-0.9814,-0.1167
365856,-0.0209,-0.9813,-0.1179
365879,-0.0209,-0.9811,-0.1178
365904,-0.0206,-0.9810,-0.1161
365952,-0.0203,-0.9812,-0.1113
365984,-0.0197,-0.9813,-0.1012
366004,-0.0188,-0.9808,-0.0829
366073,-0.0146,-0.9766,-0.0135
366096,-0.0128,-0.9745,0.0114
366117,-0.0107,-0.9719,0.0392
366137,-0.0084,-0.9688,0.0698
366165,-0.0031,-0.9609,0.1385
366185,0.0000,-0.9565,0.1760
366209,0.0066,-0.9469,0.2550
366230,0.0100,-0.9420,0.2957
366251,0.0135,-0.9370,0.3365
366275,0.0205,-0.9277,0.4169
366298,0.0239,-0.9236,0.4554
366386,0.0378,-0.9095,0.6163
366429,0.0425,-0.9045,0.6792
366450,0.0435,-0.9032,0.6938
366467,0.0441,-0.9017,0.7052
366489,0.0446,-0.9004,0.7131
366513,0.0444,-0.8973,0.7173
366542,0.0430,-0.8950,0.7031
366564,0.0416,-0.8948,0.6880
366589,0.0399,-0.8954,0.6672
366609,0.0353,-0.8990,0.6083
366688,0.0209,-0.9152,0.4286
366707,0.0162,-0.9205,0.3741
366724,0.0115,-0.9261,0.3174
366745,0.0018,-0.9375,0.2009
366780,-0.0076,-0.9486,0.0865
366803,-0.0121,-0.9541,0.0322
366827,-0.0201,-0.9651,-0.0673
366849,-0.0238,-0.9705,-0.1112
366872,-0.0271,-0.9757,-0.1506
366889,-0.0300,-0.9808,-0.1854
366911,-0.0350,-0.9901,-0.2401
366999,-0.0415,-1.0016,-0.2928
367043,-0.0420,-0.9991,-0.2786
367064,-0.0417,-0.9972,-0.2688
367087,-0.0414,-0.9949,-0.2573
367108,-0.0409,-0.9923,-0.2446
367125,-0.0403,-0.9896,-0.2311
367153,-0.0389,-0.9840,-0.2032
367176,-0.0382,-0.9812,-0.1896
367200,-0.0370,-0.9760,-0.1644
367286,-0.0350,-0.9701,-0.1206
367307,-0.0349,-0.9701,-0.1157
367331,-0.0348,-0.9707,-0.1096
367353,-0.0347,-0.9711,-0.1082
367394,-0.0347,-0.9713,-0.1079
367417,-0.0348,-0.9711,-0.1101
367434,-0.0350,-0.9709,-0.1119
367457,-0.0354,-0.9711,-0.1139
367479,-0.0358,-0.9713,-0.1161
367496,-0.0361,-0.9719,-0.1183
367518,-0.0371,-0.9735,-0.1230
367596,-0.0389,-0.9786,-0.1316
367627,-0.0396,-0.9814,-0.1346
367650,-0.0396,-0.9845,-0.1367
367667,-0.0393,-0.9860,-0.1372
367690,-0.0389,-0.9874,-0.1372
367712,-0.0386,-0.9885,-0.1370
367729,-0.0383,-0.9893,-0.1362
367751,-0.0378,-0.9899,-0.1338
367774,-0.0376,-0.9895,-0.1321
367796,-0.0372,-0.9890,-0.1301
367813,-0.0370,-0.9882,-0.1279
367906,-0.0353,-0.9806,-0.1141
367935,-0.0347,-0.9781,-0.1099
367959,-0.0342,-0.9771,-0.1079
367980,-0.0338,-0.9761,-0.1061
368002,-0.0330,-0.9745,-0.1027
368030,-0.0326,-0.9740,-0.1011
368084,-0.0310,-0.9733,-0.0961
368105,-0.0306,-0.9734,-0.0951
368128,-0.0302,-0.9735,-0.0941
368211,-0.0284,-0.9753,-0.0876
368229,-0.0281,-0.9760,-0.0853
368246,-0.0276,-0.9767,-0.0822
368268,-0.0271,-0.9777,-0.0780
368302,-0.0251,-0.9799,-0.0573
368321,-0.0244,-0.9801,-0.0466
368349,-0.0236,-0.9799,-0.0341
368368,-0.0227,-0.9792,-0.0190
368389,-0.0204,-0.9766,0.0183
368406,-0.0190,-0.9745,0.0410
368429,-0.0177,-0.9719,0.0665
368502,-0.0105,-0.9567,0.1964
368545,-0.0034,-0.9408,0.3196
368568,-0.0009,-0.9349,0.3641
368585,0.0018,-0.9291,0.4095
368602,0.0046,-0.9232,0.4557
368625,0.0105,-0.9121,0.5470
368644,0.0135,-0.9067,0.5912
368667,0.0166,-0.9016,0.6335
368689,0.0223,-0.8925,0.7112
368707,0.0249,-0.8885,0.7454
368724,0.0273,-0.8851,0.7756
368806,0.0316,-0.8708,0.8214
368843,0.0273,-0.8746,0.7681
368866,0.0237,-0.8810,0.7250
368883,0.0194,-0.8898,0.6719
368905,0.0144,-0.9004,0.6101
368922,0.0090,-0.9116,0.5410
368963,-0.0089,-0.9447,0.3073
368983,-0.0150,-0.9547,0.2263
369003,-0.0209,-0.9636,0.1465
369025,-0.0319,-0.9785,-0.0044
369129,-0.0542,-1.0002,-0.3475
369177,-0.0592,-1.0072,-0.4410
369202,-0.0599,-1.0089,-0.4590
369224,-0.0602,-1.0103,-0.4705
369246,-0.0594,-1.0111,-0.4744
369263,-0.0585,-1.0106,-0.4678
369286,-0.0571,-1.0094,-0.4561
369308,-0.0555,-1.0078,-0.4399
369330,-0.0516,-1.0031,-0.3971
369419,-0.0409,-0.9883,-0.2609
369450,-0.0369,-0.9829,-0.2078
369473,-0.0350,-0.9807,-0.1833
369490,-0.0334,-0.9786,-0.1609
369512,-0.0308,-0.9753,-0.1227
369535,-0.0298,-0.9740,-0.1072
369585,-0.0278,-0.9713,-0.0753
369608,-0.0275,-0.9708,-0.0693
369625,-0.0272,-0.9706,-0.0654
369647,-0.0272,-0.9706,-0.0630
369719,-0.0281,-0.9723,-0.0726
369737,-0.0283,-0.9730,-0.0768
369754,-0.0286,-0.9738,-0.0812
369776,-0.0288,-0.9745,-0.0856
369812,-0.0294,-0.9768,-0.0983
369834,-0.0294,-0.9775,-0.1018
369858,-0.0294,-0.9781,-0.1049
369880,-0.0294,-0.9790,-0.1095
369902,-0.0293,-0.9794,-0.1110
369919,-0.0292,-0.9795,-0.1119
369942,-0.0291,-0.9796,-0.1124
370042,-0.0278,-0.9785,-0.1066
370063,-0.0272,-0.9779,-0.1024
370082,-0.0269,-0.9777,-0.0999
370101,-0.0265,-0.9773,-0.0969
370125,-0.0261,-0.9769,-0.0934
370144,-0.0258,-0.9767,-0.0892
370162,-0.0253,-0.9764,-0.0844
370214,-0.0232,-0.9766,-0.0549
370236,-0.0226,-0.9768,-0.0448
370253,-0.0220,-0.9769,-0.0334
370340,-0.0162,-0.9741,0.0449
370358,-0.0142,-0.9725,0.0659
370379,-0.0117,-0.9705,0.0892
370399,-0.0057,-0.9648,0.1425
370434,0.0017,-0.9572,0.2047
370457,0.0061,-0.9526,0.2390
370483,0.0157,-0.9424,0.3131
370505,0.0209,-0.9368,0.3523
370528,0.0262,-0.9310,0.3922
370545,0.0317,-0.9250,0.4326
370562,0.0371,-0.9191,0.4730
370652,0.0662,-0.8899,0.6892
370695,0.0729,-0.8850,0.7402
370718,0.0769,-0.8828,0.7736
370736,0.0776,-0.8824,0.7821
370759,0.0776,-0.8826,0.7844
370776,0.0765,-0.8834,0.7799
370810,0.0714,-0.8883,0.7490
370833,0.0674,-0.8926,0.7224
370855,0.0569,-0.9037,0.6478
370944,0.0184,-0.9398,0.3677
370962,0.0095,-0.9478,0.3032
370983,0.0005,-0.9556,0.2384
371004,-0.0172,-0.9706,0.1118
371039,-0.0334,-0.9836,-0.0044
371062,-0.0408,-0.9893,-0.0568
371086,-0.0474,-0.9940,-0.1045
371108,-0.0583,-1.0012,-0.1847
371131,-0.0627,-1.0038,-0.2166
371148,-0.0664,-1.0057,-0.2429
371173,-0.0714,-1.0077,-0.2797
371236,-0.0742,-1.0056,-0.2981
371281,-0.0725,-0.9977,-0.2823
371306,-0.0696,-0.9908,-0.2593
371329,-0.0677,-0.9874,-0.2456
371351,-0.0658,-0.9841,-0.2311
371394,-0.0596,-0.9762,-0.1866
371417,-0.0576,-0.9742,-0.1726
371441,-0.0541,-0.9717,-0.1476
371464,-0.0525,-0.9708,-0.1367
371568,-0.0472,-0.9714,-0.1002
371614,-0.0470,-0.9739,-0.0977
371639,-0.0472,-0.9750,-0.0984
371661,-0.0483,-0.9777,-0.1019
371684,-0.0488,-0.9790,-0.1044
371701,-0.0493,-0.9803,-0.1071
371723,-0.0498,-0.9816,-0.1100
371745,-0.0504,-0.9829,-0.1156
371762,-0.0505,-0.9830,-0.1182
371779,-0.0505,-0.9830,-0.1204
371862,-0.0498,-0.9790,-0.1249
371890,-0.0494,-0.9768,-0.1235
371912,-0.0492,-0.9757,-0.1224
371937,-0.0491,-0.9746,-0.1211
371959,-0.0490,-0.9728,-0.1179
371981,-0.0490,-0.9719,-0.1162
372015,-0.0493,-0.9708,-0.1130
372037,-0.0496,-0.9706,-0.1115
372061,-0.0496,-0.9706,-0.1089
372084,-0.0492,-0.9708,-0.1078
372160,-0.0460,-0.9745,-0.1046
372177,-0.0453,-0.9753,-0.1042
372195,-0.0447,-0.9762,-0.1038
372244,-0.0433,-0.9784,-0.1024
372268,-0.0430,-0.9790,-0.1018
372290,-0.0427,-0.9796,-0.1012
372314,-0.0425,-0.9803,-0.1000
372337,-0.0424,-0.9805,-0.0994
372359,-0.0425,-0.9806,-0.0989
372376,-0.0425,-0.9806,-0.0981
372393,-0.0426,-0.9806,-0.0972
372463,-0.0428,-0.9786,-0.0836
372492,-0.0427,-0.9780,-0.0785
372515,-0.0424,-0.9766,-0.0656
372540,-0.0420,-0.9757,-0.0579
372562,-0.0413,-0.9740,-0.0408
372584,-0.0408,-0.9731,-0.0317
372636,-0.0392,-0.9709,-0.0040
372669,-0.0381,-0.9696,0.0131
372689,-0.0375,-0.9691,0.0208
372778,-0.0355,-0.9677,0.0480
372799,-0.0350,-0.9675,0.0530
372822,-0.0349,-0.9675,0.0543
372844,-0.0349,-0.9677,0.0549
372871,-0.0349,-0.9679,0.0544
372894,-0.0349,-0.9680,0.0533
372918,-0.0350,-0.9684,0.0504
372940,-0.0353,-0.9686,0.0485
372960,-0.0354,-0.9688,0.0465
372982,-0.0356,-0.9691,0.0424
373079,-0.0365,-0.9698,0.0338
373106,-0.0366,-0.9700,0.0316
373127,-0.0367,-0.9700,0.0309
373150,-0.0369,-0.9700,0.0300
373171,-0.0369,-0.9700,0.0299
373194,-0.0369,-0.9700,0.0299
373249,-0.0367,-0.9698,0.0314
373274,-0.0366,-0.9697,0.0320
373297,-0.0366,-0.9697,0.0326
373379,-0.0363,-0.9696,0.0355
373396,-0.0363,-0.9696,0.0359
373417,-0.0361,-0.9695,0.0366
373439,-0.0361,-0.9695,0.0369
373474,-0.0360,-0.9695,0.0371
373497,-0.0360,-0.9695,0.0371
373521,-0.0361,-0.9695,0.0371
373544,-0.0361,-0.9695,0.0370
373566,-0.0361,-0.9695,0.0369
373583,-0.0361,-0.9695,0.0369
373607,-0.0361,-0.9695,0.0366
373677,-0.0363,-0.9694,0.0361
373720,-0.0364,-0.9692,0.0356
373742,-0.0364,-0.9692,0.0355
373759,-0.0364,-0.9692,0.0354
373782,-0.0364,-0.9692,0.0353
373804,-0.0365,-0.9692,0.0350
373843,-0.0365,-0.9692,0.0349
373866,-0.0365,-0.9692,0.0348
373883,-0.0365,-0.9692,0.0347
373905,-0.0365,-0.9692,0.0344
374000,-0.0360,-0.9691,0.0338
374020,-0.0359,-0.9691,0.0337
374039,-0.0352,-0.9690,0.0333
374060,-0.0347,-0.9689,0.0331
374095,-0.0334,-0.9688,0.0323
374118,-0.0327,-0.9689,0.0317
374142,-0.0315,-0.9691,0.0306
374165,-0.0311,-0.9692,0.0302
374187,-0.0308,-0.9695,0.0299
374204,-0.0305,-0.9696,0.0299
374222,-0.0305,-0.9697,0.0304
374308,-0.0328,-0.9698,0.0317
374353,-0.0348,-0.9700,0.0315
374378,-0.0371,-0.9701,0.0305
374401,-0.0383,-0.9702,0.0300
374425,-0.0406,-0.9703,0.0288
374460,-0.0426,-0.9703,0.0278
374483,-0.0435,-0.9702,0.0273
374505,-0.0441,-0.9702,0.0266
374526,-0.0447,-0.9701,0.0247
374605,-0.0441,-0.9700,0.0198
374623,-0.0437,-0.9700,0.0188
374640,-0.0433,-0.9700,0.0182
374662,-0.0427,-0.9698,0.0177
374680,-0.0425,-0.9698,0.0177
374725,-0.0420,-0.9698,0.0190
374747,-0.0420,-0.9698,0.0197
374764,-0.0421,-0.9698,0.0203
374787,-0.0422,-0.9698,0.0208
374809,-0.0430,-0.9700,0.0217
374826,-0.0435,-0.9701,0.0222
374907,-0.0460,-0.9705,0.0236
374935,-0.0474,-0.9706,0.0236
374961,-0.0486,-0.9708,0.0228
374982,-0.0491,-0.9709,0.0222
375005,-0.0496,-0.9709,0.0216
375026,-0.0499,-0.9711,0.0210
375063,-0.0507,-0.9709,0.0197
375086,-0.0508,-0.9708,0.0194
375110,-0.0509,-0.9707,0.0193
375132,-0.0507,-0.9702,0.0197
375225,-0.0488,-0.9692,0.0229
375246,-0.0477,-0.9690,0.0247
375268,-0.0472,-0.9689,0.0255
375291,-0.0466,-0.9688,0.0265
375334,-0.0449,-0.9686,0.0289
375357,-0.0444,-0.9686,0.0297
375374,-0.0439,-0.9685,0.0303
375396,-0.0430,-0.9685,0.0315
375418,-0.0426,-0.9685,0.0321
375435,-0.0422,-0.9685,0.0326
375525,-0.0414,-0.9688,0.0341
375554,-0.0413,-0.9688,0.0343
375577,-0.0413,-0.9689,0.0343
375601,-0.0414,-0.9690,0.0343
375624,-0.0415,-0.9690,0.0343
375646,-0.0415,-0.9690,0.0343
375698,-0.0419,-0.9691,0.0354
375720,-0.0419,-0.9691,0.0361
375737,-0.0419,-0.9691,0.0372
375826,-0.0413,-0.9684,0.0560
375844,-0.0409,-0.9680,0.0641
375861,-0.0404,-0.9675,0.0741
375883,-0.0386,-0.9663,0.1012
375918,-0.0355,-0.9644,0.1385
375941,-0.0337,-0.9631,0.1616
375964,-0.0315,-0.9615,0.1877
375983,-0.0261,-0.9574,0.2490
376004,-0.0229,-0.9548,0.2842
376026,-0.0194,-0.9519,0.3220
376046,-0.0156,-0.9486,0.3624
376110,0.0013,-0.9343,0.5411
376141,0.0101,-0.9270,0.6332
376164,0.0143,-0.9231,0.6771
376181,0.0179,-0.9188,0.7180
376203,0.0238,-0.9099,0.7853
376226,0.0255,-0.9058,0.8086
376250,0.0265,-0.9023,0.8236
376272,0.0256,-0.8986,0.8248
376295,0.0238,-0.8982,0.8102
376312,0.0210,-0.8987,0.7855
376329,0.0172,-0.9000,0.7511
376351,0.0125,-0.9023,0.7076
376434,-0.0206,-0.9263,0.3939
376479,-0.0426,-0.9464,0.1761
376504,-0.0554,-0.9596,0.0403
376528,-0.0610,-0.9656,-0.0219
376548,-0.0659,-0.9712,-0.0789
376590,-0.0767,-0.9845,-0.2152
376613,-0.0790,-0.9878,-0.2480
376637,-0.0815,-0.9926,-0.2952
376739,-0.0767,-0.9944,-0.3085
376787,-0.0698,-0.9902,-0.2688
376812,-0.0671,-0.9885,-0.2526
376835,-0.0645,-0.9867,-0.2357
376857,-0.0591,-0.9829,-0.2019
376874,-0.0565,-0.9811,-0.1858
376897,-0.0542,-0.9794,-0.1705
376919,-0.0520,-0.9778,-0.1565
376936,-0.0500,-0.9764,-0.1438
376954,-0.0468,-0.9746,-0.1228
377032,-0.0437,-0.9745,-0.0999
377061,-0.0435,-0.9756,-0.0968
377083,-0.0436,-0.9763,-0.0969
377105,-0.0437,-0.9771,-0.0980
377127,-0.0441,-0.9784,-0.1021
377150,-0.0443,-0.9789,-0.1049
377187,-0.0448,-0.9792,-0.1107
377210,-0.0455,-0.9790,-0.1165
377235,-0.0459,-0.9786,-0.1191
377257,-0.0463,-0.9783,-0.1215
377319,-0.0476,-0.9769,-0.1279
377337,-0.0477,-0.9768,-0.1287
377362,-0.0481,-0.9767,-0.1290
377385,-0.0481,-0.9768,-0.1287
377428,-0.0485,-0.9773,-0.1260
377451,-0.0486,-0.9774,-0.1246
377468,-0.0487,-0.9777,-0.1230
377490,-0.0490,-0.9778,-0.1212
377512,-0.0493,-0.9781,-0.1176
377529,-0.0496,-0.9783,-0.1156
377552,-0.0497,-0.9784,-0.1138
377639,-0.0505,-0.9786,-0.1063
377666,-0.0507,-0.9785,-0.1046
377687,-0.0507,-0.9784,-0.1040
377711,-0.0504,-0.9783,-0.1034
377733,-0.0502,-0.9781,-0.1031
377756,-0.0498,-0.9780,-0.1030
377808,-0.0485,-0.9777,-0.1023
377833,-0.0474,-0.9773,-0.1010
377856,-0.0468,-0.9772,-0.1000
377951,-0.0428,-0.9777,-0.0780
377976,-0.0421,-0.9778,-0.0688
377997,-0.0402,-0.9773,-0.0432
378017,-0.0388,-0.9764,-0.0262
378045,-0.0348,-0.9735,0.0165
378068,-0.0321,-0.9712,0.0424
378093,-0.0288,-0.9684,0.0714
378115,-0.0211,-0.9614,0.1384
378144,-0.0166,-0.9574,0.1761
378166,-0.0068,-0.9489,0.2585
378256,0.0189,-0.9279,0.4889
378287,0.0295,-0.9200,0.5829
378310,0.0350,-0.9160,0.6287
378327,0.0404,-0.9117,0.6733
378349,0.0509,-0.9023,0.7567
378371,0.0558,-0.8970,0.7937
378388,0.0602,-0.8910,0.8257
378411,0.0640,-0.8848,0.8506
378433,0.0690,-0.8735,0.8717
378450,0.0702,-0.8700,0.8647
378468,0.0703,-0.8687,0.8452
378537,0.0613,-0.8883,0.6476
378582,0.0448,-0.9149,0.4114
378604,0.0381,-0.9243,0.3254
378621,0.0311,-0.9335,0.2391
378644,0.0239,-0.9424,0.1541
378668,0.0096,-0.9581,-0.0067
378696,0.0026,-0.9646,-0.0807
378718,-0.0111,-0.9752,-0.2135
378752,-0.0238,-0.9839,-0.3235
378775,-0.0297,-0.9880,-0.3690
378853,-0.0518,-1.0068,-0.4911
378879,-0.0544,-1.0092,-0.4945
378901,-0.0579,-1.0116,-0.4827
378964,-0.0583,-1.0101,-0.4276
378986,-0.0562,-1.0060,-0.3745
379008,-0.0543,-1.0031,-0.3453
379029,-0.0521,-0.9999,-0.3154
379051,-0.0494,-0.9963,-0.2853
379072,-0.0435,-0.9891,-0.2269
379168,-0.0288,-0.9747,-0.1121
379196,-0.0247,-0.9713,-0.0834
379216,-0.0231,-0.9700,-0.0729
379239,-0.0209,-0.9685,-0.0596
379262,-0.0203,-0.9681,-0.0562
379286,-0.0198,-0.9680,-0.0548
379321,-0.0193,-0.9690,-0.0599
379340,-0.0193,-0.9697,-0.0638
379364,-0.0194,-0.9707,-0.0684
379386,-0.0194,-0.9718,-0.0732
379469,-0.0199,-0.9774,-0.0967
379490,-0.0197,-0.9791,-0.1029
379513,-0.0193,-0.9799,-0.1051
379535,-0.0189,-0.9803,-0.1066
379579,-0.0172,-0.9810,-0.1077
379602,-0.0166,-0.9810,-0.1071
379619,-0.0159,-0.9808,-0.1062
379641,-0.0144,-0.9805,-0.1029
379670,-0.0135,-0.9801,-0.1003
379694,-0.0118,-0.9794,-0.0916
379762,-0.0076,-0.9762,-0.0552
379793,-0.0043,-0.9734,-0.0255
379816,-0.0024,-0.9718,-0.0074
379833,-0.0005,-0.9698,0.0128
379855,0.0016,-0.9678,0.0354
379877,0.0057,-0.9631,0.0879
379927,0.0127,-0.9553,0.1854
379952,0.0153,-0.9526,0.2228
379973,0.0179,-0.9500,0.2625
379994,0.0237,-0.9442,0.3475
380081,0.0399,-0.9244,0.5800
380098,0.0435,-0.9197,0.6257
380120,0.0468,-0.9148,0.6698
380140,0.0499,-0.9099,0.7109
380176,0.0566,-0.8942,0.8019
380198,0.0570,-0.8881,0.8149
380221,0.0562,-0.8823,0.8164
380242,0.0540,-0.8776,0.8054
380264,0.0460,-0.8755,0.7451
380289,0.0405,-0.8789,0.6969
380306,0.0342,-0.8853,0.6383
380394,-0.0111,-0.9437,0.1658
380422,-0.0187,-0.9536,0.0847
380442,-0.0258,-0.9628,0.0073
380465,-0.0385,-0.9784,-0.1328
380488,-0.0439,-0.9845,-0.1946
380513,-0.0532,-0.9940,-0.3004
380565,-0.0623,-1.0044,-0.4119
380588,-0.0638,-1.0074,-0.4358
380605,-0.0647,-1.0100,-0.4531
380687,-0.0613,-1.0143,-0.4475
380705,-0.0594,-1.0129,-0.4313
380728,-0.0574,-1.0109,-0.4114
380749,-0.0524,-1.0052,-0.3633
380787,-0.0468,-0.9980,-0.3090
380810,-0.0438,-0.9943,-0.2811
380832,-0.0378,-0.9867,-0.2264
380855,-0.0350,-0.9830,-0.2007
380877,-0.0325,-0.9797,-0.1765
380894,-0.0302,-0.9768,-0.1542
380918,-0.0260,-0.9718,-0.1162
380991,-0.0206,-0.9664,-0.0693
381031,-0.0188,-0.9662,-0.0582
381051,-0.0184,-0.9667,-0.0583
381074,-0.0182,-0.9673,-0.0598
381095,-0.0181,-0.9681,-0.0625
381119,-0.0179,-0.9701,-0.0704
381155,-0.0181,-0.9723,-0.0802
381178,-0.0181,-0.9734,-0.0852
381202,-0.0182,-0.9756,-0.0950
381225,-0.0182,-0.9766,-0.0992
381302,-0.0190,-0.9801,-0.1135
381321,-0.0193,-0.9803,-0.1146
381344,-0.0194,-0.9806,-0.1151
381366,-0.0199,-0.9806,-0.1144
381394,-0.0200,-0.9803,-0.1132
381417,-0.0201,-0.9800,-0.1077
381441,-0.0200,-0.9797,-0.1028
381464,-0.0199,-0.9795,-0.0956
381500,-0.0182,-0.9780,-0.0566
381524,-0.0170,-0.9769,-0.0366
381619,-0.0009,-0.9617,0.1656
381665,0.0072,-0.9525,0.2618
381690,0.0159,-0.9412,0.3673
381713,0.0204,-0.9347,0.4222
381730,0.0248,-0.9279,0.4774
381772,0.0377,-0.9056,0.6366
381795,0.0415,-0.8986,0.6841
381819,0.0475,-0.8859,0.7639
381913,0.0480,-0.8772,0.8202
381936,0.0416,-0.8845,0.7723
381958,0.0370,-0.8901,0.7340
381978,0.0315,-0.8965,0.6871
382018,0.0181,-0.9111,0.5721
382039,0.0032,-0.9263,0.4374
382061,-0.0043,-0.9337,0.3660
382083,-0.0116,-0.9409,0.2937
382102,-0.0188,-0.9478,0.2219
382119,-0.0258,-0.9542,0.1517
382143,-0.0385,-0.9659,0.0208
382214,-0.0570,-0.9835,-0.1824
382242,-0.0625,-0.9891,-0.2478
382262,-0.0642,-0.9912,-0.2711
382286,-0.0652,-0.9928,-0.2885
382308,-0.0653,-0.9945,-0.3065
382327,-0.0646,-0.9948,-0.3081
382371,-0.0616,-0.9940,-0.2897
382394,-0.0576,-0.9919,-0.2778
382411,-0.0554,-0.9905,-0.2639
382434,-0.0531,-0.9890,-0.2488
382528,-0.0396,-0.9802,-0.1553
382545,-0.0374,-0.9792,-0.1427
382563,-0.0353,-0.9785,-0.1315
382586,-0.0333,-0.9779,-0.1217
382639,-0.0291,-0.9772,-0.1016
382664,-0.0275,-0.9774,-0.0955
382687,-0.0271,-0.9778,-0.0944
382709,-0.0267,-0.9786,-0.0952
382726,-0.0267,-0.9792,-0.0968
382748,-0.0270,-0.9799,-0.0991
382888,-0.0312,-0.9835,-0.1224
382922,-0.0325,-0.9830,-0.1262
382945,-0.0333,-0.9818,-0.1283
382994,-0.0341,-0.9796,-0.1279
383013,-0.0342,-0.9790,-0.1270
383036,-0.0343,-0.9783,-0.1256
383056,-0.0343,-0.9777,-0.1239
383128,-0.0341,-0.9753,-0.1119
383145,-0.0339,-0.9752,-0.1093
383169,-0.0338,-0.9751,-0.1066
383192,-0.0336,-0.9750,-0.1040
383219,-0.0330,-0.9750,-0.0994
383242,-0.0325,-0.9750,-0.0973
383264,-0.0315,-0.9751,-0.0939
383287,-0.0310,-0.9752,-0.0927
383309,-0.0305,-0.9753,-0.0917
383333,-0.0293,-0.9757,-0.0906
383356,-0.0287,-0.9760,-0.0905
383431,-0.0261,-0.9784,-0.0853
383460,-0.0258,-0.9786,-0.0804
383497,-0.0242,-0.9768,-0.0486
383517,-0.0228,-0.9753,-0.0308
383540,-0.0210,-0.9734,-0.0087
383562,-0.0184,-0.9709,0.0179
383582,-0.0115,-0.9648,0.0842
383605,-0.0070,-0.9611,0.1237
383627,-0.0017,-0.9570,0.1671
383671,0.0168,-0.9427,0.3159
383746,0.0438,-0.9226,0.5347
383763,0.0502,-0.9172,0.5881
383785,0.0618,-0.9055,0.6886
383808,0.0667,-0.8990,0.7338
383835,0.0741,-0.8848,0.8092
383858,0.0764,-0.8774,0.8372
383882,0.0776,-0.8650,0.8684
383904,0.0767,-0.8606,0.8700
383927,0.0746,-0.8578,0.8615
383944,0.0714,-0.8562,0.8428
383962,0.0671,-0.8560,0.8141
384062,0.0240,-0.8834,0.4757
384115,-0.0103,-0.9260,0.1799
384137,-0.0181,-0.9377,0.1093
384158,-0.0251,-0.9495,0.0421
384179,-0.0317,-0.9608,-0.0206
384201,-0.0425,-0.9821,-0.1299
384223,-0.0468,-0.9915,-0.1755
384246,-0.0502,-0.9999,-0.2147
384268,-0.0544,-1.0131,-0.2739
384362,-0.0538,-1.0228,-0.3182
384390,-0.0504,-1.0192,-0.3040
384410,-0.0482,-1.0161,-0.2921
384433,-0.0459,-1.0127,-0.2782
384455,-0.0413,-1.0046,-0.2457
384480,-0.0391,-1.0002,-0.2285
384515,-0.0349,-0.9915,-0.1938
384538,-0.0314,-0.9833,-0.1619
384563,-0.0299,-0.9796,-0.1476
384585,-0.0286,-0.9762,-0.1346
384653,-0.0249,-0.9666,-0.0940
384670,-0.0245,-0.9661,-0.0907
384688,-0.0243,-0.9659,-0.0886
384711,-0.0240,-0.9663,-0.0879
384762,-0.0240,-0.9692,-0.0916
384785,-0.0242,-0.9707,-0.0941
384808,-0.0247,-0.9738,-0.1005
384831,-0.0248,-0.9751,-0.1039
384855,-0.0249,-0.9774,-0.1108
384877,-0.0247,-0.9785,-0.1140
384904,-0.0242,-0.9802,-0.1194
384991,-0.0216,-0.9825,-0.1251
385021,-0.0206,-0.9824,-0.1243
385040,-0.0203,-0.9822,-0.1233
385064,-0.0200,-0.9818,-0.1219
385085,-0.0198,-0.9813,-0.1206
385102,-0.0195,-0.9808,-0.1190
385159,-0.0192,-0.9785,-0.1125
385182,-0.0190,-0.9780,-0.1110
385199,-0.0189,-0.9775,-0.1093
385291,-0.0181,-0.9763,-0.0991
385309,-0.0179,-0.9764,-0.0975
385332,-0.0179,-0.9766,-0.0959
385354,-0.0179,-0.9767,-0.0944
385381,-0.0181,-0.9769,-0.0914
385414,-0.0183,-0.9772,-0.0886
385438,-0.0186,-0.9773,-0.0874
385461,-0.0190,-0.9775,-0.0851
385484,-0.0193,-0.9777,-0.0839
385501,-0.0194,-0.9778,-0.0825
385594,-0.0197,-0.9775,-0.0521
385624,-0.0184,-0.9756,-0.0250
385647,-0.0172,-0.9741,-0.0067
385664,-0.0156,-0.9723,0.0149
385687,-0.0135,-0.9701,0.0402
385709,-0.0085,-0.9645,0.1010
385766,0.0012,-0.9537,0.2156
385791,0.0049,-0.9497,0.2588
385811,0.0128,-0.9412,0.3499
385881,0.0280,-0.9237,0.5337
385898,0.0314,-0.9197,0.5767
385923,0.0345,-0.9159,0.6172
385945,0.0399,-0.9088,0.6892
385975,0.0436,-0.9012,0.7444
385997,0.0447,-0.8976,0.7635
386021,0.0450,-0.8944,0.7756
386040,0.0448,-0.8921,0.7800
386060,0.0439,-0.8909,0.7762
386080,0.0399,-0.8918,0.7424
386102,0.0369,-0.8938,0.7128
386199,0.0061,-0.9220,0.3976
386244,-0.0120,-0.9417,0.2000
386269,-0.0176,-0.9482,0.1357
386292,-0.0229,-0.9547,0.0742
386312,-0.0322,-0.9668,-0.0378
386356,-0.0394,-0.9774,-0.1311
386376,-0.0421,-0.9821,-0.1697
386400,-0.0458,-0.9899,-0.2296
386500,-0.0455,-1.0016,-0.2833
386517,-0.0442,-1.0015,-0.2777
386534,-0.0427,-1.0007,-0.2692
386557,-0.0411,-0.9994,-0.2583
386594,-0.0378,-0.9952,-0.2317
386617,-0.0348,-0.9896,-0.2018
386634,-0.0334,-0.9867,-0.1866
386657,-0.0321,-0.9838,-0.1720
386679,-0.0309,-0.9810,-0.1581
386696,-0.0298,-0.9785,-0.1450
386718,-0.0281,-0.9746,-0.1227
386799,-0.0272,-0.9711,-0.0911
386848,-0.0281,-0.9728,-0.0875
386871,-0.0284,-0.9739,-0.0883
386894,-0.0289,-0.9751,-0.0897
386919,-0.0300,-0.9778,-0.0940
386939,-0.0306,-0.9791,-0.0966
386960,-0.0314,-0.9805,-0.0992
386980,-0.0320,-0.9817,-0.1021
387002,-0.0332,-0.9836,-0.1075
387026,-0.0337,-0.9845,-0.1100
387093,-0.0347,-0.9855,-0.1172
387124,-0.0341,-0.9839,-0.1187
387147,-0.0336,-0.9828,-0.1187
387164,-0.0331,-0.9816,-0.1183
387186,-0.0317,-0.9789,-0.1162
387209,-0.0311,-0.9778,-0.1147
387263,-0.0293,-0.9750,-0.1080
387288,-0.0284,-0.9747,-0.1012
387311,-0.0281,-0.9751,-0.0966
387333,-0.0278,-0.9756,-0.0907
387408,-0.0239,-0.9734,-0.0338
387447,-0.0201,-0.9694,0.0056
387465,-0.0177,-0.9667,0.0298
387502,-0.0079,-0.9567,0.1213
387524,-0.0040,-0.9529,0.1588
387549,0.0002,-0.9489,0.1997
387571,0.0093,-0.9404,0.2914
387594,0.0142,-0.9360,0.3417
387618,0.0192,-0.9315,0.3942
387640,0.0289,-0.9222,0.5022
387732,0.0455,-0.9045,0.7155
387764,0.0461,-0.9028,0.7448
387787,0.0425,-0.9030,0.7317
387804,0.0389,-0.9038,0.7094
387826,0.0343,-0.9053,0.6771
387849,0.0288,-0.9075,0.6361
387866,0.0225,-0.9105,0.5872
387888,0.0083,-0.9188,0.4708
387910,0.0009,-0.9242,0.4061
387927,-0.0066,-0.9301,0.3391
387944,-0.0140,-0.9364,0.2709
388027,-0.0458,-0.9689,-0.0428
388073,-0.0577,-0.9843,-0.1770
388092,-0.0603,-0.9882,-0.2098
388109,-0.0623,-0.9916,-0.2366
388130,-0.0636,-0.9944,-0.2573
388152,-0.0642,-0.9967,-0.2722
388189,-0.0629,-1.0004,-0.2866
388208,-0.0615,-1.0005,-0.2828
388233,-0.0599,-1.0001,-0.2756
388315,-0.0496,-0.9923,-0.2092
388336,-0.0476,-0.9901,-0.1935
388353,-0.0457,-0.9879,-0.1779
388375,-0.0426,-0.9836,-0.1487
388425,-0.0396,-0.9780,-0.1135
388445,-0.0391,-0.9764,-0.1047
388469,-0.0387,-0.9751,-0.0973
388491,-0.0382,-0.9733,-0.0872
388515,-0.0382,-0.9728,-0.0841
388538,-0.0382,-0.9724,-0.0823
388555,-0.0383,-0.9723,-0.0815
388630,-0.0404,-0.9744,-0.0896
388660,-0.0417,-0.9758,-0.0959
388682,-0.0424,-0.9767,-0.0994
388707,-0.0430,-0.9775,-0.1027
388729,-0.0441,-0.9791,-0.1088
388752,-0.0444,-0.9800,-0.1115
388791,-0.0452,-0.9812,-0.1155
388814,-0.0458,-0.9821,-0.1176
388831,-0.0460,-0.9823,-0.1179
388854,-0.0461,-0.9824,-0.1178
388958,-0.0469,-0.9805,-0.1084
389010,-0.0466,-0.9779,-0.0975
389032,-0.0465,-0.9773,-0.0942
389054,-0.0463,-0.9768,-0.0901
389073,-0.0459,-0.9762,-0.0847
389097,-0.0450,-0.9750,-0.0685
389120,-0.0443,-0.9742,-0.0565
389142,-0.0433,-0.9734,-0.0416
389159,-0.0420,-0.9722,-0.0232
389257,-0.0243,-0.9552,0.1764
389295,-0.0138,-0.9393,0.3325
389318,-0.0020,-0.9329,0.3899
389335,0.0042,-0.9261,0.4485
389381,0.0216,-0.9066,0.6221
389426,0.0314,-0.8948,0.7261
389453,0.0383,-0.8828,0.8086
389475,0.0405,-0.8768,0.8373
389543,0.0375,-0.8635,0.8300
389561,0.0337,-0.8665,0.7948
389583,0.0234,-0.8802,0.6884
389600,0.0171,-0.8898,0.6201
389637,0.0028,-0.9104,0.4629
389660,-0.0048,-0.9208,0.3779
389684,-0.0204,-0.9409,0.2052
389707,-0.0280,-0.9501,0.1210
389729,-0.0354,-0.9583,0.0403
389746,-0.0422,-0.9655,-0.0360
389768,-0.0546,-0.9762,-0.1730
389853,-0.0751,-0.9927,-0.4084
389885,-0.0787,-0.9990,-0.4547
389908,-0.0797,-1.0020,-0.4673
389932,-0.0801,-1.0044,-0.4733
389954,-0.0795,-1.0073,-0.4664
389975,-0.0786,-1.0078,-0.4548
389997,-0.0775,-1.0076,-0.4386
390017,-0.0746,-1.0051,-0.3950
390037,-0.0728,-1.0031,-0.3690
390059,-0.0707,-1.0005,-0.3413
390081,-0.0685,-0.9977,-0.3125
390171,-0.0541,-0.9795,-0.1510
390219,-0.0494,-0.9738,-0.0980
390243,-0.0485,-0.9725,-0.0861
390266,-0.0476,-0.9717,-0.0768
390283,-0.0470,-0.9709,-0.0703
390326,-0.0460,-0.9702,-0.0643
390346,-0.0459,-0.9702,-0.0658
390368,-0.0459,-0.9702,-0.0686
390461,-0.0475,-0.9741,-0.0980
390483,-0.0480,-0.9751,-0.1029
390505,-0.0493,-0.9769,-0.1116
390528,-0.0502,-0.9777,-0.1150
390569,-0.0519,-0.9790,-0.1201
390592,-0.0535,-0.9797,-0.1226
390609,-0.0542,-0.9800,-0.1229
390632,-0.0549,-0.9801,-0.1227
390654,-0.0555,-0.9801,-0.1219
390671,-0.0563,-0.9800,-0.1188
390688,-0.0565,-0.9799,-0.1163
390758,-0.0560,-0.9784,-0.0985
390788,-0.0551,-0.9773,-0.0844
390810,-0.0543,-0.9767,-0.0759
390835,-0.0536,-0.9760,-0.0669
390857,-0.0519,-0.9745,-0.0469
390888,-0.0509,-0.9729,-0.0255
390920,-0.0491,-0.9722,-0.0146
390943,-0.0472,-0.9707,0.0062
390972,-0.0457,-0.9694,0.0251
390992,-0.0449,-0.9688,0.0334
391071,-0.0430,-0.9672,0.0579
391090,-0.0425,-0.9669,0.0642
391112,-0.0424,-0.9668,0.0660
391133,-0.0422,-0.9668,0.0670
391179,-0.0424,-0.9669,0.0659
391199,-0.0425,-0.9670,0.0646
391216,-0.0426,-0.9673,0.0629
391238,-0.0428,-0.9674,0.0608
391260,-0.0432,-0.9678,0.0563
391277,-0.0435,-0.9679,0.0538
391302,-0.0436,-0.9680,0.0515
391389,-0.0444,-0.9686,0.0421
391420,-0.0446,-0.9688,0.0398
391440,-0.0446,-0.9688,0.0391
391464,-0.0447,-0.9686,0.0382
391487,-0.0447,-0.9686,0.0381
391504,-0.0446,-0.9686,0.0381
391563,-0.0444,-0.9684,0.0397
391585,-0.0443,-0.9684,0.0403
391608,-0.0442,-0.9683,0.0409
391685,-0.0439,-0.9681,0.0441
391705,-0.0438,-0.9681,0.0446
391727,-0.0438,-0.9681,0.0454
391749,-0.0438,-0.9681,0.0458
391779,-0.0438,-0.9681,0.0463
391801,-0.0438,-0.9681,0.0464
391826,-0.0438,-0.9683,0.0465
391848,-0.0438,-0.9683,0.0465
391871,-0.0438,-0.9683,0.0465
391888,-0.0439,-0.9683,0.0464
391912,-0.0439,-0.9684,0.0461
391985,-0.0441,-0.9684,0.0454
392014,-0.0441,-0.9684,0.0450
392033,-0.0441,-0.9684,0.0449
392057,-0.0441,-0.9684,0.0448
392078,-0.0441,-0.9684,0.0447
392098,-0.0441,-0.9683,0.0444
392116,-0.0441,-0.9683,0.0444
392163,-0.0441,-0.9681,0.0443
392187,-0.0439,-0.9681,0.0443
392210,-0.0439,-0.9681,0.0443
392299,-0.0438,-0.9680,0.0444
392318,-0.0437,-0.9680,0.0446
392341,-0.0437,-0.9680,0.0446
392363,-0.0437,-0.9680,0.0446
392392,-0.0437,-0.9681,0.0447
392415,-0.0436,-0.9681,0.0447
392439,-0.0436,-0.9681,0.0447
392462,-0.0436,-0.9681,0.0447
392484,-0.0437,-0.9681,0.0447
392501,-0.0437,-0.9681,0.0447
392526,-0.0437,-0.9681,0.0447
392616,-0.0439,-0.9683,0.0447
392662,-0.0441,-0.9681,0.0448
392687,-0.0441,-0.9681,0.0448
392710,-0.0441,-0.9681,0.0448
392727,-0.0441,-0.9681,0.0448
392771,-0.0441,-0.9681,0.0448
392794,-0.0441,-0.9681,0.0448
392818,-0.0441,-0.9680,0.0448
392913,-0.0439,-0.9680,0.0447
392933,-0.0439,-0.9680,0.0447
392957,-0.0438,-0.9680,0.0447
392987,-0.0438,-0.9680,0.0446
393020,-0.0438,-0.9680,0.0446
393040,-0.0438,-0.9680,0.0446
393057,-0.0438,-0.9680,0.0446
393080,-0.0438,-0.9680,0.0446
393102,-0.0439,-0.9680,0.0446
393119,-0.0439,-0.9680,0.0446
393136,-0.0439,-0.9680,0.0446
393205,-0.0439,-0.9681,0.0446
393252,-0.0439,-0.9681,0.0446
393277,-0.0439,-0.9681,0.0446
393300,-0.0439,-0.9681,0.0446
393322,-0.0438,-0.9683,0.0446
393361,-0.0438,-0.9683,0.0446
393384,-0.0438,-0.9683,0.0446
393401,-0.0438,-0.9683,0.0446
393423,-0.0438,-0.9683,0.0446
393514,-0.0437,-0.9683,0.0446
393532,-0.0437,-0.9681,0.0446
393549,-0.0437,-0.9681,0.0446
393571,-0.0437,-0.9681,0.0446
393621,-0.0437,-0.9681,0.0446
393643,-0.0437,-0.9680,0.0446
393663,-0.0437,-0.9680,0.0446
393685,-0.0437,-0.9680,0.0446
393707,-0.0437,-0.9680,0.0446
393724,-0.0438,-0.9680,0.0446
393826,-0.0438,-0.9680,0.0447
393857,-0.0438,-0.9680,0.0447
393879,-0.0438,-0.9680,0.0447
393896,-0.0438,-0.9680,0.0447
393919,-0.0438,-0.9681,0.0447
393941,-0.0438,-0.9681,0.0446
393979,-0.0438,-0.9681,0.0446
393999,-0.0438,-0.9681,0.0446
394019,-0.0438,-0.9683,0.0446
394041,-0.0438,-0.9683,0.0446
394125,-0.0438,-0.9681,0.0444
394148,-0.0438,-0.9681,0.0444
394166,-0.0438,-0.9681,0.0443
394188,-0.0438,-0.9681,0.0443
394235,-0.0438,-0.9681,0.0443
394260,-0.0438,-0.9681,0.0443
394283,-0.0438,-0.9681,0.0443
394305,-0.0438,-0.9680,0.0443
394322,-0.0438,-0.9680,0.0443
394344,-0.0438,-0.9680,0.0443
394419,-0.0438,-0.9680,0.0444
394460,-0.0438,-0.9680,0.0446
394482,-0.0438,-0.9680,0.0446
394499,-0.0438,-0.9680,0.0446
394522,-0.0438,-0.9680,0.0446
394544,-0.0438,-0.9680,0.0446
394561,-0.0438,-0.9680,0.0446
394583,-0.0438,-0.9680,0.0446
394606,-0.0438,-0.9680,0.0446
394623,-0.0438,-0.9680,0.0446
394640,-0.0438,-0.9680,0.0446
394715,-0.0439,-0.9681,0.0446
394761,-0.0439,-0.9681,0.0446
394785,-0.0439,-0.9681,0.0446
394808,-0.0439,-0.9681,0.0446
394830,-0.0439,-0.9681,0.0446
394870,-0.0439,-0.9681,0.0446
394893,-0.0439,-0.9681,0.0447
394917,-0.0441,-0.9680,0.0447
394940,-0.0441,-0.9680,0.0447
394957,-0.0441,-0.9680,0.0448
395061,-0.0441,-0.9680,0.0446
395095,-0.0441,-0.9681,0.0444
395117,-0.0439,-0.9681,0.0443
395134,-0.0439,-0.9681,0.0443
395157,-0.0439,-0.9681,0.0443
395179,-0.0439,-0.9681,0.0442
395196,-0.0439,-0.9681,0.0442
395218,-0.0439,-0.9681,0.0442
395239,-0.0439,-0.9681,0.0442
395263,-0.0439,-0.9681,0.0442
398223,-0.0485,-0.9701,0.0072
398323,-0.0485,-0.9698,0.0073
398340,-0.0485,-0.9698,0.0072
398362,-0.0486,-0.9698,0.0072
398384,-0.0486,-0.9697,0.0072
398401,-0.0486,-0.9697,0.0072
398424,-0.0486,-0.9697,0.0072
398441,-0.0486,-0.9697,0.0071
398477,-0.0487,-0.9697,0.0071
398500,-0.0487,-0.9698,0.0071
398524,-0.0487,-0.9698,0.0071
398584,-0.0488,-0.9697,0.0070
398601,-0.0488,-0.9697,0.0070
398623,-0.0490,-0.9697,0.0070
398640,-0.0490,-0.9697,0.0070
398677,-0.0490,-0.9696,0.0068
398700,-0.0491,-0.9696,0.0068
398724,-0.0491,-0.9695,0.0067
398747,-0.0491,-0.9694,0.0067
398769,-0.0492,-0.9691,0.0066
398786,-0.0492,-0.9690,0.0066
398808,-0.0493,-0.9689,0.0066
398831,-0.0494,-0.9688,0.0066
398916,-0.0499,-0.9685,0.0061
398949,-0.0502,-0.9686,0.0059
398970,-0.0504,-0.9689,0.0056
398994,-0.0505,-0.9691,0.0054
399013,-0.0505,-0.9692,0.0052
399035,-0.0507,-0.9695,0.0051
399052,-0.0508,-0.9697,0.0049
399074,-0.0509,-0.9701,0.0046
399097,-0.0509,-0.9702,0.0044
399114,-0.0510,-0.9703,0.0043
399131,-0.0510,-0.9705,0.0042
399222,-0.0510,-0.9708,0.0037
399253,-0.0510,-0.9707,0.0037
399276,-0.0509,-0.9706,0.0037
399293,-0.0509,-0.9706,0.0037
399316,-0.0509,-0.9705,0.0037
399334,-0.0509,-0.9703,0.0038
399409,-0.0508,-0.9697,0.0039
399426,-0.0508,-0.9696,0.0040
399526,-0.0507,-0.9691,0.0040
399567,-0.0507,-0.9690,0.0039
399590,-0.0507,-0.9690,0.0037
399607,-0.0508,-0.9690,0.0035
399629,-0.0508,-0.9691,0.0034
399652,-0.0508,-0.9691,0.0033
399669,-0.0509,-0.9692,0.0032
399691,-0.0509,-0.9694,0.0028
399713,-0.0510,-0.9695,0.0027
399730,-0.0510,-0.9695,0.0026
399747,-0.0510,-0.9696,0.0023
399815,-0.0513,-0.9700,0.0020
399845,-0.0514,-0.9701,0.0017
399868,-0.0514,-0.9701,0.0017
399891,-0.0515,-0.9701,0.0016
399913,-0.0515,-0.9702,0.0016
399936,-0.0515,-0.9702,0.0015
399974,-0.0516,-0.9701,0.0015
399995,-0.0516,-0.9701,0.0015
400019,-0.0516,-0.9701,0.0015
400038,-0.0516,-0.9701,0.0015
400136,-0.0518,-0.9698,0.0017
400156,-0.0518,-0.9698,0.0017
400181,-0.0518,-0.9698,0.0018
400204,-0.0516,-0.9697,0.0018
400235,-0.0516,-0.9697,0.0018
400258,-0.0516,-0.9697,0.0020
400276,-0.0516,-0.9697,0.0020
400298,-0.0515,-0.9697,0.0020
400321,-0.0515,-0.9696,0.0018
400338,-0.0515,-0.9696,0.0018
400363,-0.0515,-0.9696,0.0018
400446,-0.0514,-0.9696,0.0017
400509,-0.0514,-0.9696,0.0017
400527,-0.0514,-0.9696,0.0017
400549,-0.0514,-0.9695,0.0017
400566,-0.0514,-0.9695,0.0018
400603,-0.0514,-0.9695,0.0018
400626,-0.0514,-0.9695,0.0018
400650,-0.0513,-0.9695,0.0018
400743,-0.0513,-0.9696,0.0018
400761,-0.0513,-0.9696,0.0018
400778,-0.0513,-0.9696,0.0018
400800,-0.0513,-0.9696,0.0018
400837,-0.0513,-0.9696,0.0018
400860,-0.0513,-0.9696,0.0018
400884,-0.0514,-0.9696,0.0018
400907,-0.0514,-0.9696,0.0018
400929,-0.0515,-0.9696,0.0018
400951,-0.0516,-0.9696,0.0020
400972,-0.0516,-0.9696,0.0020
401040,-0.0519,-0.9696,0.0020
401069,-0.0520,-0.9696,0.0020
401091,-0.0520,-0.9697,0.0020
401115,-0.0520,-0.9697,0.0020
401137,-0.0520,-0.9697,0.0020
401160,-0.0521,-0.9697,0.0020
401200,-0.0521,-0.9697,0.0018
401222,-0.0522,-0.9697,0.0018
401239,-0.0522,-0.9697,0.0018
401262,-0.0522,-0.9697,0.0018
401355,-0.0525,-0.9697,0.0015
401379,-0.0525,-0.9697,0.0013
401401,-0.0526,-0.9698,0.0012
401473,-0.0527,-0.9698,0.0010
401497,-0.0527,-0.9698,0.0009
401519,-0.0527,-0.9700,0.0009
401541,-0.0529,-0.9700,0.0009
401558,-0.0529,-0.9700,0.0007
401583,-0.0529,-0.9700,0.0007
401667,-0.0527,-0.9700,0.0009
401697,-0.0527,-0.9700,0.0009
401720,-0.0526,-0.9698,0.0009
401737,-0.0526,-0.9698,0.0009
401759,-0.0526,-0.9698,0.0010
401784,-0.0526,-0.9697,0.0010
401821,-0.0525,-0.9697,0.0010
401843,-0.0525,-0.9696,0.0011
401868,-0.0525,-0.9696,0.0011
401890,-0.0525,-0.9696,0.0011
401972,-0.0525,-0.9696,0.0012
401990,-0.0525,-0.9696,0.0012
402009,-0.0525,-0.9696,0.0012
402031,-0.0525,-0.9696,0.0012
402067,-0.0525,-0.9697,0.0011
402090,-0.0525,-0.9697,0.0011
402107,-0.0525,-0.9697,0.0010
402130,-0.0525,-0.9698,0.0010
402152,-0.0525,-0.9698,0.0009
402169,-0.0526,-0.9698,0.0009
402194,-0.0526,-0.9698,0.0009
402264,-0.0526,-0.9698,0.0007
402297,-0.0526,-0.9698,0.0009
402320,-0.0526,-0.9698,0.0009
402337,-0.0527,-0.9698,0.0009
402359,-0.0527,-0.9698,0.0010
402382,-0.0527,-0.9697,0.0010
402409,-0.0527,-0.9697,0.0011
402432,-0.0527,-0.9697,0.0011
402454,-0.0527,-0.9697,0.0011
402513,-0.0527,-0.9697,0.0013
402605,-0.0527,-0.9698,0.0013
402638,-0.0527,-0.9698,0.0013
402661,-0.0526,-0.9698,0.0013
402678,-0.0526,-0.9698,0.0013
402701,-0.0526,-0.9698,0.0012
402723,-0.0526,-0.9698,0.0012
402740,-0.0525,-0.9698,0.0011
402762,-0.0525,-0.9698,0.0010
402785,-0.0525,-0.9698,0.0010
402809,-0.0526,-0.9698,0.0009
402900,-0.0527,-0.9698,0.0005
402930,-0.0529,-0.9700,0.0004
402953,-0.0529,-0.9700,0.0004
402974,-0.0530,-0.9700,0.0002
402995,-0.0530,-0.9700,0.0001
403014,-0.0531,-0.9700,0.0001
403061,-0.0532,-0.9700,-0.0001
403083,-0.0532,-0.9700,-0.0001
403100,-0.0532,-0.9700,-0.0002
403123,-0.0533,-0.9700,-0.0002
403203,-0.0533,-0.9698,-0.0005
403221,-0.0533,-0.9698,-0.0005
403238,-0.0533,-0.9698,-0.0005
403260,-0.0533,-0.9698,-0.0005
403297,-0.0532,-0.9697,-0.0005
403320,-0.0532,-0.9697,-0.0005
403344,-0.0532,-0.9697,-0.0005
403366,-0.0531,-0.9697,-0.0004
403389,-0.0531,-0.9697,-0.0004
403406,-0.0531,-0.9696,-0.0004
403428,-0.0531,-0.9696,-0.0004
403499,-0.0531,-0.9696,-0.0004
403561,-0.0531,-0.9695,-0.0004
403578,-0.0531,-0.9695,-0.0005
403600,-0.0531,-0.9695,-0.0005
403623,-0.0531,-0.9694,-0.0006
403642,-0.0532,-0.9694,-0.0006
403664,-0.0532,-0.9694,-0.0006
403686,-0.0533,-0.9692,-0.0007
403716,-0.0535,-0.9692,-0.0007
403815,-0.0540,-0.9694,-0.0009
403832,-0.0540,-0.9694,-0.0010
403849,-0.0541,-0.9695,-0.0010
403871,-0.0542,-0.9695,-0.0010
403908,-0.0543,-0.9696,-0.0010
403931,-0.0544,-0.9696,-0.0009
403954,-0.0546,-0.9696,-0.0009
403974,-0.0546,-0.9696,-0.0009
403995,-0.0546,-0.9697,-0.0009
404017,-0.0547,-0.9697,-0.0007
404113,-0.0547,-0.9697,-0.0007
404146,-0.0547,-0.9697,-0.0007
404169,-0.0547,-0.9697,-0.0007
404186,-0.0547,-0.9696,-0.0009
404204,-0.0547,-0.9696,-0.0009
404227,-0.0547,-0.9697,-0.0009
404253,-0.0547,-0.9697,-0.0009
404276,-0.0547,-0.9697,-0.0009
404298,-0.0547,-0.9697,-0.0009
404316,-0.0547,-0.9697,-0.0009
404333,-0.0547,-0.9697,-0.0009
404413,-0.0547,-0.9696,-0.0010
404443,-0.0548,-0.9697,-0.0011
404466,-0.0548,-0.9697,-0.0012
404490,-0.0548,-0.9697,-0.0012
404513,-0.0548,-0.9697,-0.0013
404531,-0.0549,-0.9697,-0.0013
404607,-0.0551,-0.9697,-0.0016
404630,-0.0552,-0.9697,-0.0017
404705,-0.0553,-0.9698,-0.0020
404722,-0.0553,-0.9698,-0.0020
404739,-0.0553,-0.9698,-0.0020
404762,-0.0553,-0.9698,-0.0021
404807,-0.0552,-0.9698,-0.0021
404830,-0.0552,-0.9698,-0.0021
404847,-0.0552,-0.9700,-0.0021
404869,-0.0552,-0.9698,-0.0021
404891,-0.0551,-0.9698,-0.0020
404908,-0.0551,-0.9698,-0.0020
404933,-0.0549,-0.9698,-0.0018
405022,-0.0549,-0.9697,-0.0016
405052,-0.0549,-0.9697,-0.0016
405073,-0.0549,-0.9697,-0.0015
405095,-0.0549,-0.9697,-0.0013
405117,-0.0549,-0.9697,-0.0013
405139,-0.0551,-0.9697,-0.0013
405183,-0.0551,-0.9697,-0.0012
405206,-0.0552,-0.9697,-0.0012
405230,-0.0552,-0.9697,-0.0012
405328,-0.0554,-0.9698,-0.0013
405361,-0.0554,-0.9700,-0.0015
405384,-0.0555,-0.9700,-0.0015
405401,-0.0555,-0.9700,-0.0015
405423,-0.0555,-0.9700,-0.0015
405445,-0.0554,-0.9698,-0.0015
405462,-0.0554,-0.9698,-0.0015
405485,-0.0554,-0.9698,-0.0015
405507,-0.0554,-0.9698,-0.0015
405524,-0.0554,-0.9697,-0.0015
405542,-0.0553,-0.9697,-0.0013
405637,-0.0553,-0.9696,-0.0012
405698,-0.0554,-0.9696,-0.0012
405715,-0.0554,-0.9696,-0.0012
405738,-0.0554,-0.9696,-0.0012
405755,-0.0554,-0.9697,-0.0013
405792,-0.0553,-0.9697,-0.0013
405815,-0.0553,-0.9698,-0.0015
405832,-0.0553,-0.9698,-0.0015
405855,-0.0553,-0.9698,-0.0015
405922,-0.0552,-0.9700,-0.0015
405940,-0.0552,-0.9700,-0.0015
405957,-0.0552,-0.9700,-0.0015
405977,-0.0551,-0.9700,-0.0013
406014,-0.0551,-0.9701,-0.0012
406035,-0.0549,-0.9701,-0.0012
406058,-0.0549,-0.9700,-0.0012
406080,-0.0549,-0.9700,-0.0010
406103,-0.0549,-0.9700,-0.0010
406127,-0.0549,-0.9700,-0.0009
406151,-0.0549,-0.9698,-0.0007
406249,-0.0551,-0.9697,-0.0004
406281,-0.0551,-0.9697,-0.0004
406303,-0.0551,-0.9697,-0.0005
406321,-0.0551,-0.9697,-0.0005
406344,-0.0551,-0.9698,-0.0005
406361,-0.0551,-0.9698,-0.0005
406405,-0.0549,-0.9698,-0.0006
406428,-0.0549,-0.9698,-0.0006
406452,-0.0549,-0.9698,-0.0007
406544,-0.0546,-0.9700,-0.0010
406568,-0.0544,-0.9700,-0.0012
406591,-0.0543,-0.9700,-0.0012
406663,-0.0540,-0.9698,-0.0016
406680,-0.0538,-0.9700,-0.0016
406702,-0.0537,-0.9700,-0.0016
406725,-0.0536,-0.9700,-0.0016
406742,-0.0536,-0.9700,-0.0016
406764,-0.0536,-0.9700,-0.0016
406846,-0.0540,-0.9698,-0.0013
406876,-0.0542,-0.9697,-0.0012
406899,-0.0543,-0.9697,-0.0011
406923,-0.0546,-0.9697,-0.0011
406946,-0.0546,-0.9696,-0.0011
406967,-0.0548,-0.9696,-0.0010
407007,-0.0549,-0.9695,-0.0010
407029,-0.0551,-0.9695,-0.0010
407052,-0.0552,-0.9695,-0.0010
407137,-0.0551,-0.9695,-0.0010
407154,-0.0551,-0.9695,-0.0010
407178,-0.0549,-0.9695,-0.0010
407199,-0.0549,-0.9695,-0.0010
407228,-0.0548,-0.9695,-0.0011
407251,-0.0547,-0.9695,-0.0011
407275,-0.0546,-0.9696,-0.0011
407298,-0.0546,-0.9696,-0.0011
407320,-0.0544,-0.9696,-0.0011
407337,-0.0543,-0.9696,-0.0012
407359,-0.0543,-0.9697,-0.0012
407457,-0.0541,-0.9697,-0.0013
407488,-0.0540,-0.9697,-0.0015
407510,-0.0540,-0.9697,-0.0015
407527,-0.0540,-0.9697,-0.0015
407550,-0.0540,-0.9697,-0.0016
407572,-0.0540,-0.9696,-0.0016
407644,-0.0541,-0.9696,-0.0017
407662,-0.0541,-0.9696,-0.0017
407760,-0.0543,-0.9696,-0.0017
407777,-0.0543,-0.9696,-0.0017
407794,-0.0543,-0.9697,-0.0017
407817,-0.0543,-0.9697,-0.0017
407854,-0.0544,-0.9697,-0.0017
407877,-0.0544,-0.9698,-0.0017
407894,-0.0544,-0.9698,-0.0017
407917,-0.0544,-0.9698,-0.0017
407939,-0.0544,-0.9698,-0.0017
407956,-0.0544,-0.9698,-0.0017
407975,-0.0546,-0.9698,-0.0017
408070,-0.0546,-0.9698,-0.0016
408103,-0.0546,-0.9698,-0.0015
408126,-0.0546,-0.9697,-0.0015
408143,-0.0546,-0.9697,-0.0015
408166,-0.0546,-0.9697,-0.0015
408188,-0.0546,-0.9697,-0.0015
408205,-0.0546,-0.9696,-0.0013
408226,-0.0544,-0.9696,-0.0013
408259,-0.0544,-0.9696,-0.0013
408280,-0.0544,-0.9696,-0.0013
408355,-0.0544,-0.9696,-0.0013
408386,-0.0543,-0.9696,-0.0013
408409,-0.0543,-0.9696,-0.0013
408426,-0.0543,-0.9696,-0.0013
408448,-0.0543,-0.9696,-0.0015
408471,-0.0543,-0.9696,-0.0015
408511,-0.0543,-0.9697,-0.0015
408534,-0.0543,-0.9697,-0.0016
408558,-0.0542,-0.9697,-0.0016
408580,-0.0542,-0.9697,-0.0016
408669,-0.0542,-0.9698,-0.0016
408693,-0.0543,-0.9698,-0.0016
408758,-0.0544,-0.9703,-0.0015
408776,-0.0546,-0.9707,-0.0015
408798,-0.0547,-0.9719,-0.0012
408821,-0.0548,-0.9728,-0.0012
408838,-0.0547,-0.9739,-0.0011
408860,-0.0546,-0.9751,-0.0011
408882,-0.0541,-0.9773,-0.0010
408901,-0.0537,-0.9783,-0.0009
408990,-0.0511,-0.9800,0.0013
409020,-0.0500,-0.9790,0.0032
409041,-0.0496,-0.9784,0.0043
409064,-0.0486,-0.9768,0.0068
409085,-0.0482,-0.9760,0.0082
409102,-0.0479,-0.9752,0.0096
409147,-0.0469,-0.9728,0.0139
409169,-0.0468,-0.9719,0.0154
409194,-0.0465,-0.9709,0.0168
409293,-0.0463,-0.9634,0.0270
409313,-0.0463,-0.9608,0.0304
409335,-0.0463,-0.9597,0.0320
409358,-0.0464,-0.9589,0.0336
409387,-0.0464,-0.9576,0.0363
409410,-0.0465,-0.9573,0.0374
409434,-0.0466,-0.9572,0.0393
409457,-0.0466,-0.9574,0.0400
409479,-0.0468,-0.9578,0.0408
409496,-0.0468,-0.9583,0.0413
409579,-0.0471,-0.9623,0.0422
409609,-0.0472,-0.9641,0.0421
409632,-0.0475,-0.9658,0.0419
409649,-0.0475,-0.9667,0.0416
409671,-0.0476,-0.9673,0.0415
409694,-0.0476,-0.9680,0.0413
409716,-0.0477,-0.9690,0.0409
409734,-0.0477,-0.9694,0.0406
409757,-0.0477,-0.9696,0.0405
409824,-0.0475,-0.9698,0.0399
409903,-0.0469,-0.9681,0.0394
409920,-0.0466,-0.9673,0.0394
409937,-0.0465,-0.9663,0.0394
409960,-0.0463,-0.9653,0.0394
410006,-0.0458,-0.9622,0.0392
410027,-0.0457,-0.9612,0.0391
410049,-0.0457,-0.9604,0.0389
410070,-0.0455,-0.9596,0.0383
410093,-0.0455,-0.9596,0.0378
410117,-0.0455,-0.9597,0.0374
410134,-0.0455,-0.9602,0.0367
410218,-0.0457,-0.9655,0.0311
410249,-0.0458,-0.9664,0.0299
410275,-0.0459,-0.9685,0.0276
410294,-0.0460,-0.9695,0.0264
410317,-0.0461,-0.9703,0.0251
410341,-0.0464,-0.9718,0.0229
410379,-0.0468,-0.9730,0.0210
410402,-0.0469,-0.9735,0.0201
410426,-0.0472,-0.9742,0.0186
410524,-0.0479,-0.9755,0.0153
410543,-0.0479,-0.9755,0.0149
410566,-0.0479,-0.9753,0.0148
410588,-0.0476,-0.9750,0.0146
410618,-0.0476,-0.9749,0.0146
410641,-0.0474,-0.9742,0.0150
410658,-0.0471,-0.9739,0.0153
410681,-0.0470,-0.9735,0.0155
410703,-0.0469,-0.9733,0.0157
410725,-0.0466,-0.9727,0.0160
410751,-0.0465,-0.9724,0.0160
410817,-0.0461,-0.9728,0.0155
410879,-0.0454,-0.9741,0.0146
410897,-0.0453,-0.9744,0.0146
410919,-0.0452,-0.9742,0.0146
410941,-0.0449,-0.9738,0.0149
410974,-0.0447,-0.9727,0.0156
410993,-0.0446,-0.9719,0.0162
411017,-0.0446,-0.9711,0.0168
411036,-0.0444,-0.9702,0.0176
411058,-0.0443,-0.9685,0.0190
411146,-0.0442,-0.9650,0.0231
411179,-0.0441,-0.9644,0.0245
411202,-0.0441,-0.9641,0.0251
411219,-0.0441,-0.9641,0.0256
411241,-0.0439,-0.9642,0.0265
411262,-0.0439,-0.9645,0.0269
411279,-0.0438,-0.9647,0.0271
411302,-0.0438,-0.9651,0.0272
411324,-0.0437,-0.9655,0.0273
411341,-0.0436,-0.9663,0.0275
411358,-0.0436,-0.9667,0.0275
411447,-0.0437,-0.9686,0.0269
411477,-0.0438,-0.9692,0.0265
411500,-0.0438,-0.9695,0.0264
411524,-0.0438,-0.9696,0.0261
411546,-0.0438,-0.9700,0.0259
411563,-0.0438,-0.9700,0.0256
411608,-0.0438,-0.9701,0.0254
411631,-0.0438,-0.9700,0.0253
411648,-0.0438,-0.9698,0.0251
411671,-0.0438,-0.9697,0.0251
411746,-0.0437,-0.9690,0.0251
411766,-0.0437,-0.9688,0.0251
411789,-0.0438,-0.9685,0.0251
411811,-0.0438,-0.9679,0.0251
411871,-0.0439,-0.9664,0.0250
411892,-0.0441,-0.9659,0.0250
411914,-0.0442,-0.9647,0.0248
411937,-0.0443,-0.9642,0.0245
411960,-0.0444,-0.9637,0.0243
412042,-0.0449,-0.9626,0.0220
412073,-0.0452,-0.9635,0.0205
412096,-0.0454,-0.9650,0.0187
412113,-0.0455,-0.9659,0.0176
412135,-0.0457,-0.9669,0.0166
412158,-0.0459,-0.9680,0.0155
412198,-0.0463,-0.9713,0.0123
412221,-0.0465,-0.9722,0.0112
412245,-0.0466,-0.9730,0.0104
412266,-0.0470,-0.9745,0.0085
412291,-0.0471,-0.9750,0.0078
412387,-0.0481,-0.9760,0.0045
412405,-0.0482,-0.9758,0.0043
412427,-0.0483,-0.9756,0.0040
412449,-0.0485,-0.9750,0.0038
412480,-0.0486,-0.9742,0.0037
412503,-0.0487,-0.9738,0.0037
412520,-0.0487,-0.9734,0.0037
412543,-0.0487,-0.9729,0.0037
412565,-0.0487,-0.9720,0.0038
412582,-0.0487,-0.9717,0.0039
412599,-0.0488,-0.9712,0.0039
412684,-0.0490,-0.9697,0.0039
412715,-0.0490,-0.9694,0.0038
412738,-0.0491,-0.9692,0.0037
412755,-0.0491,-0.9691,0.0035
412777,-0.0491,-0.9690,0.0034
412801,-0.0491,-0.9689,0.0032
412868,-0.0490,-0.9688,0.0028
412885,-0.0491,-0.9688,0.0027
412976,-0.0496,-0.9688,0.0021
412995,-0.0497,-0.9688,0.0020
413012,-0.0498,-0.9688,0.0018
413032,-0.0499,-0.9689,0.0018
413069,-0.0504,-0.9691,0.0015
413091,-0.0505,-0.9692,0.0013
413108,-0.0507,-0.9695,0.0012
413131,-0.0508,-0.9696,0.0010
413153,-0.0510,-0.9700,0.0006
413170,-0.0511,-0.9701,0.0005
413193,-0.0513,-0.9702,0.0002
413276,-0.0518,-0.9703,-0.0005
413305,-0.0519,-0.9701,-0.0007
413325,-0.0519,-0.9698,-0.0009
413350,-0.0519,-0.9696,-0.0011
413372,-0.0520,-0.9692,-0.0013
413395,-0.0520,-0.9691,-0.0015
413434,-0.0520,-0.9691,-0.0018
413457,-0.0519,-0.9692,-0.0022
413474,-0.0519,-0.9695,-0.0023
413497,-0.0519,-0.9696,-0.0024
413599,-0.0519,-0.9707,-0.0032
413619,-0.0520,-0.9708,-0.0033
413641,-0.0521,-0.9711,-0.0035
413664,-0.0521,-0.9711,-0.0037
413693,-0.0522,-0.9711,-0.0038
413716,-0.0522,-0.9711,-0.0039
413740,-0.0524,-0.9709,-0.0039
413763,-0.0525,-0.9708,-0.0039
413785,-0.0525,-0.9707,-0.0040
413802,-0.0526,-0.9706,-0.0040
413898,-0.0527,-0.9698,-0.0042
413956,-0.0527,-0.9695,-0.0043
413977,-0.0527,-0.9695,-0.0043
413999,-0.0527,-0.9694,-0.0043
414018,-0.0527,-0.9694,-0.0043
414057,-0.0526,-0.9694,-0.0043
414079,-0.0526,-0.9694,-0.0043
414106,-0.0526,-0.9694,-0.0043
414198,-0.0524,-0.9694,-0.0044
414216,-0.0522,-0.9692,-0.0045
414240,-0.0522,-0.9692,-0.0045
414262,-0.0522,-0.9691,-0.0046
414302,-0.0525,-0.9691,-0.0049
414325,-0.0526,-0.9690,-0.0050
414343,-0.0527,-0.9690,-0.0051
414366,-0.0530,-0.9690,-0.0052
414388,-0.0531,-0.9690,-0.0054
414406,-0.0532,-0.9690,-0.0055
414428,-0.0535,-0.9690,-0.0057
414494,-0.0538,-0.9692,-0.0065
414525,-0.0541,-0.9695,-0.0068
414548,-0.0542,-0.9696,-0.0070
414565,-0.0542,-0.9698,-0.0072
414588,-0.0543,-0.9698,-0.0073
414610,-0.0544,-0.9701,-0.0076
414627,-0.0546,-0.9702,-0.0077
414644,-0.0546,-0.9702,-0.0077
414666,-0.0546,-0.9703,-0.0078
414711,-0.0546,-0.9702,-0.0078
414733,-0.0546,-0.9701,-0.0079
414822,-0.0543,-0.9694,-0.0078
414839,-0.0542,-0.9694,-0.0078
414856,-0.0542,-0.9692,-0.0078
414878,-0.0541,-0.9694,-0.0079
414932,-0.0540,-0.9696,-0.0081
414956,-0.0540,-0.9697,-0.0082
414977,-0.0540,-0.9697,-0.0083
414999,-0.0541,-0.9700,-0.0084
415020,-0.0541,-0.9701,-0.0085
415037,-0.0542,-0.9702,-0.0087
415122,-0.0544,-0.9705,-0.0093
415178,-0.0547,-0.9705,-0.0096
415196,-0.0548,-0.9703,-0.0098
415218,-0.0549,-0.9703,-0.0099
415241,-0.0549,-0.9702,-0.0100
415258,-0.0551,-0.9702,-0.0100
415280,-0.0551,-0.9701,-0.0100
415302,-0.0551,-0.9701,-0.0101
415319,-0.0552,-0.9700,-0.0101
415336,-0.0552,-0.9700,-0.0101
415427,-0.0552,-0.9697,-0.0101
415458,-0.0553,-0.9696,-0.0101
415481,-0.0553,-0.9696,-0.0100
415498,-0.0552,-0.9696,-0.0100
415520,-0.0552,-0.9695,-0.0100
415537,-0.0552,-0.9695,-0.0099
415582,-0.0552,-0.9695,-0.0099
415604,-0.0552,-0.9695,-0.0099
415629,-0.0552,-0.9695,-0.0099
415651,-0.0552,-0.9695,-0.0100
415720,-0.0552,-0.9695,-0.0101
415739,-0.0552,-0.9695,-0.0101
415762,-0.0552,-0.9695,-0.0103
415784,-0.0552,-0.9695,-0.0103
415814,-0.0552,-0.9696,-0.0104
415837,-0.0552,-0.9696,-0.0104
415854,-0.0552,-0.9696,-0.0104
415876,-0.0552,-0.9696,-0.0104
415897,-0.0553,-0.9696,-0.0104
415921,-0.0553,-0.9696,-0.0104
415946,-0.0553,-0.9696,-0.0104
416044,-0.0553,-0.9696,-0.0104
416092,-0.0552,-0.9697,-0.0104
416116,-0.0552,-0.9697,-0.0104
416137,-0.0552,-0.9697,-0.0103
416154,-0.0552,-0.9697,-0.0103
416214,-0.0552,-0.9697,-0.0103
416239,-0.0552,-0.9697,-0.0103
416262,-0.0552,-0.9697,-0.0103
416354,-0.0551,-0.9697,-0.0104
416387,-0.0551,-0.9697,-0.0104
416409,-0.0551,-0.9697,-0.0105
416427,-0.0551,-0.9696,-0.0105
416450,-0.0551,-0.9696,-0.0105
416472,-0.0551,-0.9696,-0.0105
416489,-0.0549,-0.9696,-0.0105
416512,-0.0549,-0.9696,-0.0105
416534,-0.0549,-0.9695,-0.0105
416551,-0.0549,-0.9695,-0.0106
416568,-0.0549,-0.9695,-0.0106
416643,-0.0549,-0.9695,-0.0106
416673,-0.0549,-0.9696,-0.0106
416695,-0.0549,-0.9696,-0.0107
416720,-0.0549,-0.9696,-0.0107
416742,-0.0551,-0.9697,-0.0107
416765,-0.0551,-0.9697,-0.0107
416804,-0.0551,-0.9698,-0.0107
416827,-0.0552,-0.9698,-0.0107
416844,-0.0552,-0.9700,-0.0107
416867,-0.0552,-0.9700,-0.0107
416941,-0.0552,-0.9700,-0.0109
416964,-0.0552,-0.9698,-0.0110
416987,-0.0552,-0.9698,-0.0110
417007,-0.0552,-0.9698,-0.0110
417055,-0.0552,-0.9697,-0.0111
417080,-0.0551,-0.9696,-0.0111
417103,-0.0551,-0.9696,-0.0111
417125,-0.0551,-0.9695,-0.0111
417142,-0.0551,-0.9695,-0.0111
417164,-0.0551,-0.9695,-0.0111
417181,-0.0551,-0.9695,-0.0111
417268,-0.0552,-0.9695,-0.0112
417313,-0.0554,-0.9695,-0.0114
417336,-0.0555,-0.9696,-0.0114
417353,-0.0555,-0.9696,-0.0114
417375,-0.0557,-0.9696,-0.0115
417392,-0.0557,-0.9697,-0.0115
417428,-0.0559,-0.9698,-0.0116
417448,-0.0559,-0.9698,-0.0116
417473,-0.0560,-0.9698,-0.0117
417573,-0.0562,-0.9700,-0.0118
417593,-0.0562,-0.9700,-0.0118
417615,-0.0560,-0.9700,-0.0118
417638,-0.0560,-0.9700,-0.0118
417667,-0.0560,-0.9700,-0.0120
417690,-0.0560,-0.9700,-0.0120
417714,-0.0559,-0.9700,-0.0120
417737,-0.0559,-0.9700,-0.0120
417759,-0.0559,-0.9700,-0.0120
417776,-0.0559,-0.9700,-0.0121
417869,-0.0558,-0.9698,-0.0122
417899,-0.0558,-0.9698,-0.0123
417922,-0.0559,-0.9697,-0.0123
417944,-0.0559,-0.9697,-0.0125
417966,-0.0559,-0.9697,-0.0125
417986,-0.0560,-0.9697,-0.0126
418003,-0.0560,-0.9697,-0.0126
418049,-0.0562,-0.9697,-0.0127
418071,-0.0563,-0.9697,-0.0127
418088,-0.0564,-0.9697,-0.0127
418162,-0.0566,-0.9698,-0.0128
418180,-0.0566,-0.9698,-0.0128
418204,-0.0568,-0.9698,-0.0128
418227,-0.0568,-0.9698,-0.0128
418268,-0.0568,-0.9698,-0.0127
418291,-0.0568,-0.9698,-0.0127
418310,-0.0568,-0.9698,-0.0127
418332,-0.0568,-0.9698,-0.0127
418364,-0.0568,-0.9698,-0.0126
418384,-0.0566,-0.9697,-0.0126
418491,-0.0564,-0.9696,-0.0126
418523,-0.0563,-0.9696,-0.0126
418546,-0.0563,-0.9695,-0.0126
418563,-0.0562,-0.9695,-0.0126
418585,-0.0562,-0.9695,-0.0126
418610,-0.0560,-0.9695,-0.0127
418647,-0.0560,-0.9695,-0.0127
418670,-0.0560,-0.9695,-0.0128
418687,-0.0560,-0.9695,-0.0129
418780,-0.0560,-0.9696,-0.0133
418798,-0.0560,-0.9696,-0.0133
418815,-0.0560,-0.9697,-0.0134
418837,-0.0562,-0.9697,-0.0134
418874,-0.0562,-0.9697,-0.0135
418897,-0.0562,-0.9697,-0.0135
418921,-0.0562,-0.9698,-0.0135
418944,-0.0563,-0.9698,-0.0135
418965,-0.0563,-0.9698,-0.0135
418987,-0.0563,-0.9698,-0.0135
419009,-0.0563,-0.9698,-0.0134
419093,-0.0564,-0.9698,-0.0134
419140,-0.0564,-0.9698,-0.0134
419165,-0.0564,-0.9698,-0.0134
419187,-0.0564,-0.9698,-0.0135
419209,-0.0564,-0.9698,-0.0135
419261,-0.0564,-0.9698,-0.0137
419284,-0.0564,-0.9698,-0.0138
419301,-0.0564,-0.9698,-0.0138
419382,-0.0565,-0.9700,-0.0142
419403,-0.0565,-0.9701,-0.0142
419427,-0.0566,-0.9701,-0.0143
419450,-0.0566,-0.9701,-0.0143
419479,-0.0566,-0.9702,-0.0143
419502,-0.0566,-0.9702,-0.0143
419524,-0.0566,-0.9702,-0.0143
419547,-0.0566,-0.9702,-0.0143
419569,-0.0566,-0.9702,-0.0143
419593,-0.0566,-0.9702,-0.0143
419616,-0.0566,-0.9702,-0.0143
419708,-0.0565,-0.9700,-0.0139
419739,-0.0565,-0.9700,-0.0138
419762,-0.0565,-0.9700,-0.0138
419779,-0.0565,-0.9700,-0.0137
419802,-0.0564,-0.9698,-0.0137
419824,-0.0564,-0.9698,-0.0135
419863,-0.0563,-0.9698,-0.0134
419886,-0.0563,-0.9698,-0.0134
419910,-0.0562,-0.9698,-0.0133
420009,-0.0560,-0.9698,-0.0129
420030,-0.0559,-0.9698,-0.0129
420048,-0.0559,-0.9698,-0.0128
420068,-0.0559,-0.9698,-0.0128
420124,-0.0558,-0.9698,-0.0127
420149,-0.0557,-0.9698,-0.0127
420172,-0.0557,-0.9700,-0.0127
420194,-0.0557,-0.9700,-0.0127
420211,-0.0557,-0.9700,-0.0127
420306,-0.0557,-0.9700,-0.0127
420359,-0.0557,-0.9700,-0.0127
420378,-0.0557,-0.9700,-0.0127
420397,-0.0557,-0.9700,-0.0127
420420,-0.0557,-0.9700,-0.0127
420442,-0.0557,-0.9700,-0.0127
420459,-0.0557,-0.9700,-0.0127
420481,-0.0557,-0.9700,-0.0126
420504,-0.0557,-0.9700,-0.0126
420525,-0.0558,-0.9700,-0.0126
420600,-0.0558,-0.9698,-0.0126
420630,-0.0558,-0.9698,-0.0125
420652,-0.0558,-0.9698,-0.0125
420677,-0.0558,-0.9698,-0.0125
420699,-0.0558,-0.9698,-0.0125
420722,-0.0558,-0.9698,-0.0125
420764,-0.0557,-0.9698,-0.0125
420786,-0.0557,-0.9698,-0.0125
420803,-0.0557,-0.9698,-0.0125
420826,-0.0557,-0.9698,-0.0125
420914,-0.0554,-0.9698,-0.0126
420933,-0.0554,-0.9698,-0.0126
420957,-0.0554,-0.9698,-0.0127
420976,-0.0554,-0.9698,-0.0127
421006,-0.0553,-0.9700,-0.0127
421027,-0.0553,-0.9701,-0.0128
421044,-0.0553,-0.9702,-0.0128
421066,-0.0554,-0.9708,-0.0127
421089,-0.0554,-0.9714,-0.0126
421110,-0.0554,-0.9722,-0.0125
421127,-0.0554,-0.9731,-0.0123
421222,-0.0542,-0.9802,-0.0099
421269,-0.0529,-0.9813,-0.0077
421294,-0.0522,-0.9812,-0.0068
421316,-0.0511,-0.9805,-0.0048
421340,-0.0505,-0.9799,-0.0038
421390,-0.0490,-0.9783,-0.0007
421413,-0.0485,-0.9778,0.0004
421430,-0.0481,-0.9774,0.0013
421529,-0.0461,-0.9712,0.0094
421552,-0.0458,-0.9675,0.0129
421574,-0.0457,-0.9656,0.0148
421597,-0.0455,-0.9635,0.0166
421626,-0.0453,-0.9598,0.0203
421648,-0.0452,-0.9583,0.0220
421672,-0.0450,-0.9558,0.0251
421695,-0.0450,-0.9550,0.0265
421717,-0.0450,-0.9542,0.0277
421734,-0.0449,-0.9537,0.0288
421814,-0.0450,-0.9502,0.0314
421844,-0.0452,-0.9473,0.0312
421867,-0.0453,-0.9458,0.0309
421891,-0.0457,-0.9434,0.0298
421914,-0.0459,-0.9429,0.0288
421936,-0.0461,-0.9431,0.0277
421953,-0.0468,-0.9458,0.0245
421976,-0.0470,-0.9482,0.0225
421996,-0.0474,-0.9514,0.0203
422039,-0.0486,-0.9630,0.0123
422132,-0.0507,-0.9824,-0.0016
422149,-0.0511,-0.9854,-0.0040
422167,-0.0515,-0.9878,-0.0063
422189,-0.0521,-0.9910,-0.0103
422243,-0.0529,-0.9921,-0.0145
422268,-0.0531,-0.9915,-0.0155
422290,-0.0533,-0.9894,-0.0168
422313,-0.0536,-0.9878,-0.0172
422337,-0.0536,-0.9861,-0.0175
422359,-0.0538,-0.9823,-0.0176
422451,-0.0541,-0.9729,-0.0165
422497,-0.0542,-0.9688,-0.0156
422522,-0.0542,-0.9678,-0.0155
422544,-0.0542,-0.9663,-0.0151
422567,-0.0542,-0.9658,-0.0150
422609,-0.0544,-0.9653,-0.0149
422632,-0.0544,-0.9655,-0.0149
422654,-0.0546,-0.9657,-0.0149
422738,-0.0549,-0.9678,-0.0156
422756,-0.0549,-0.9681,-0.0157
422780,-0.0551,-0.9690,-0.0160
422803,-0.0551,-0.9695,-0.0161
422832,-0.0551,-0.9701,-0.0164
422855,-0.0551,-0.9703,-0.0165
422879,-0.0552,-0.9708,-0.0167
422902,-0.0551,-0.9709,-0.0167
422924,-0.0551,-0.9711,-0.0168
422941,-0.0551,-0.9711,-0.0168
422963,-0.0551,-0.9711,-0.0170
423031,-0.0551,-0.9708,-0.0171
423063,-0.0551,-0.9706,-0.0171
423085,-0.0551,-0.9705,-0.0170
423109,-0.0551,-0.9703,-0.0170
423131,-0.0551,-0.9701,-0.0170
423154,-0.0551,-0.9700,-0.0170
423176,-0.0551,-0.9698,-0.0170
423198,-0.0551,-0.9697,-0.0168
423221,-0.0551,-0.9696,-0.0168
423238,-0.0551,-0.9696,-0.0168
423256,-0.0551,-0.9696,-0.0168
423348,-0.0551,-0.9697,-0.0168
423395,-0.0549,-0.9698,-0.0170
423419,-0.0549,-0.9698,-0.0170
423442,-0.0549,-0.9698,-0.0170
423459,-0.0549,-0.9700,-0.0171
423515,-0.0548,-0.9701,-0.0172
423538,-0.0548,-0.9701,-0.0172
423555,-0.0548,-0.9701,-0.0172
423577,-0.0548,-0.9701,-0.0172
423661,-0.0547,-0.9701,-0.0175
423696,-0.0548,-0.9701,-0.0176
423718,-0.0548,-0.9701,-0.0176
423735,-0.0548,-0.9701,-0.0176
423758,-0.0548,-0.9700,-0.0177
423780,-0.0548,-0.9700,-0.0177
423797,-0.0549,-0.9700,-0.0178
423819,-0.0549,-0.9700,-0.0178
423842,-0.0549,-0.9698,-0.0178
423859,-0.0549,-0.9698,-0.0179
423876,-0.0549,-0.9698,-0.0179
423969,-0.0551,-0.9698,-0.0182
423999,-0.0551,-0.9698,-0.0182
424019,-0.0551,-0.9698,-0.0182
424042,-0.0551,-0.9698,-0.0183
424063,-0.0551,-0.9698,-0.0183
424080,-0.0551,-0.9698,-0.0183
424124,-0.0551,-0.9698,-0.0184
424147,-0.0552,-0.9698,-0.0184
424169,-0.0552,-0.9700,-0.0186
424253,-0.0553,-0.9700,-0.0187
424270,-0.0553,-0.9700,-0.0187
424288,-0.0554,-0.9700,-0.0188
424311,-0.0554,-0.9700,-0.0188
424365,-0.0555,-0.9700,-0.0188
424390,-0.0557,-0.9700,-0.0189
424413,-0.0557,-0.9700,-0.0189
424435,-0.0558,-0.9700,-0.0189
424462,-0.0558,-0.9700,-0.0189
424485,-0.0559,-0.9700,-0.0189
424568,-0.0560,-0.9701,-0.0190
424616,-0.0560,-0.9702,-0.0192
424641,-0.0560,-0.9702,-0.0192
424664,-0.0560,-0.9702,-0.0192
424684,-0.0560,-0.9703,-0.0192
424701,-0.0560,-0.9703,-0.0192
424730,-0.0560,-0.9703,-0.0192
424753,-0.0560,-0.9703,-0.0192
424777,-0.0560,-0.9703,-0.0192
424876,-0.0560,-0.9702,-0.0192
424893,-0.0559,-0.9701,-0.0193
424911,-0.0559,-0.9701,-0.0193
424933,-0.0559,-0.9701,-0.0193
424970,-0.0558,-0.9700,-0.0193
424990,-0.0557,-0.9700,-0.0193
425014,-0.0557,-0.9700,-0.0193
425033,-0.0557,-0.9698,-0.0193
425055,-0.0555,-0.9698,-0.0193
425079,-0.0555,-0.9698,-0.0193
425177,-0.0555,-0.9698,-0.0192
425206,-0.0555,-0.9698,-0.0192
425226,-0.0557,-0.9700,-0.0192
425251,-0.0557,-0.9700,-0.0192
425273,-0.0557,-0.9700,-0.0190
425295,-0.0557,-0.9700,-0.0190
425353,-0.0558,-0.9698,-0.0190
425378,-0.0558,-0.9698,-0.0190
425401,-0.0558,-0.9698,-0.0190
425473,-0.0558,-0.9698,-0.0190
425490,-0.0558,-0.9698,-0.0190
425507,-0.0558,-0.9698,-0.0190
425529,-0.0558,-0.9700,-0.0190
425575,-0.0558,-0.9700,-0.0190
425597,-0.0558,-0.9700,-0.0190
425616,-0.0558,-0.9700,-0.0190
425639,-0.0557,-0.9700,-0.0190
425661,-0.0557,-0.9700,-0.0190
425678,-0.0557,-0.9700,-0.0190
425701,-0.0557,-0.9700,-0.0190
425787,-0.0558,-0.9701,-0.0190
425830,-0.0559,-0.9701,-0.0190
425853,-0.0559,-0.9701,-0.0190
425870,-0.0559,-0.9701,-0.0190
425892,-0.0559,-0.9701,-0.0190
425916,-0.0560,-0.9701,-0.0190
425945,-0.0560,-0.9701,-0.0190
425966,-0.0560,-0.9700,-0.0189
425989,-0.0560,-0.9700,-0.0189
426008,-0.0560,-0.9700,-0.0189
426106,-0.0559,-0.9698,-0.0187
426126,-0.0559,-0.9698,-0.0187
426148,-0.0559,-0.9698,-0.0187
426171,-0.0559,-0.9698,-0.0187
426200,-0.0559,-0.9700,-0.0187
426222,-0.0559,-0.9700,-0.0187
426245,-0.0559,-0.9700,-0.0188
426267,-0.0559,-0.9700,-0.0188
426290,-0.0559,-0.9700,-0.0188
426307,-0.0559,-0.9700,-0.0188
426403,-0.0559,-0.9700,-0.0189
426450,-0.0559,-0.9700,-0.0189
426475,-0.0559,-0.9700,-0.0189
426496,-0.0559,-0.9700,-0.0189
426518,-0.0559,-0.9700,-0.0189
426535,-0.0559,-0.9700,-0.0189
426572,-0.0559,-0.9700,-0.0189
426595,-0.0559,-0.9700,-0.0189
426619,-0.0559,-0.9700,-0.0188
426697,-0.0560,-0.9700,-0.0188
426717,-0.0559,-0.9700,-0.0188
426740,-0.0559,-0.9700,-0.0188
426761,-0.0559,-0.9700,-0.0188
426803,-0.0559,-0.9700,-0.0188
426826,-0.0559,-0.9700,-0.0188
426843,-0.0559,-0.9700,-0.0188
426865,-0.0558,-0.9700,-0.0188
426887,-0.0558,-0.9700,-0.0188
426904,-0.0558,-0.9700,-0.0188
426927,-0.0558,-0.9700,-0.0188
427019,-0.0558,-0.9701,-0.0187
427049,-0.0558,-0.9702,-0.0187
427071,-0.0559,-0.9703,-0.0188
427092,-0.0559,-0.9707,-0.0189
427113,-0.0559,-0.9714,-0.0190
427135,-0.0562,-0.9747,-0.0197
427152,-0.0563,-0.9777,-0.0200
427182,-0.0563,-0.9814,-0.0205
427205,-0.0562,-0.9910,-0.0214
427222,-0.0559,-0.9958,-0.0216
427319,-0.0530,-1.0020,-0.0155
427336,-0.0521,-0.9984,-0.0126
427354,-0.0514,-0.9939,-0.0090
427377,-0.0505,-0.9886,-0.0049
427430,-0.0480,-0.9707,0.0095
427455,-0.0466,-0.9591,0.0199
427478,-0.0460,-0.9539,0.0249
427500,-0.0454,-0.9492,0.0298
427517,-0.0449,-0.9452,0.0343
427539,-0.0442,-0.9395,0.0424
427626,-0.0436,-0.9380,0.0533
427656,-0.0438,-0.9414,0.0546
427679,-0.0441,-0.9437,0.0547
427703,-0.0443,-0.9463,0.0546
427725,-0.0447,-0.9518,0.0538
427750,-0.0449,-0.9546,0.0532
427799,-0.0454,-0.9626,0.0509
427822,-0.0457,-0.9673,0.0488
427841,-0.0458,-0.9694,0.0477
427907,-0.0459,-0.9763,0.0437
427924,-0.0458,-0.9775,0.0430
427947,-0.0458,-0.9785,0.0424
427964,-0.0458,-0.9792,0.0420
427999,-0.0459,-0.9799,0.0416
428020,-0.0460,-0.9799,0.0416
428042,-0.0464,-0.9792,0.0424
428064,-0.0466,-0.9786,0.0428
428086,-0.0470,-0.9778,0.0437
428110,-0.0479,-0.9757,0.0454
428133,-0.0483,-0.9744,0.0465
428225,-0.0532,-0.9658,0.0551
428255,-0.0543,-0.9645,0.0568
428278,-0.0566,-0.9624,0.0601
428302,-0.0579,-0.9617,0.0616
428324,-0.0605,-0.9612,0.0645
428346,-0.0620,-0.9614,0.0657
428403,-0.0669,-0.9630,0.0685
428428,-0.0701,-0.9647,0.0696
428451,-0.0715,-0.9657,0.0698
428543,-0.0729,-0.9731,0.0702
428565,-0.0714,-0.9741,0.0704
428588,-0.0692,-0.9750,0.0707
428610,-0.0636,-0.9760,0.0715
428640,-0.0603,-0.9763,0.0723
428663,-0.0536,-0.9771,0.0745
428680,-0.0504,-0.9775,0.0759
428703,-0.0476,-0.9779,0.0775
428725,-0.0452,-0.9781,0.0793
428742,-0.0433,-0.9783,0.0814
428844,-0.0471,-0.9758,0.1006
428887,-0.0524,-0.9744,0.1078
428910,-0.0554,-0.9734,0.1116
428929,-0.0618,-0.9712,0.1193
428953,-0.0649,-0.9698,0.1232
428974,-0.0680,-0.9684,0.1270
429004,-0.0734,-0.9650,0.1343
429025,-0.0757,-0.9630,0.1378
429048,-0.0791,-0.9583,0.1448
429137,-0.0785,-0.9437,0.1624
429160,-0.0768,-0.9407,0.1661
429177,-0.0747,-0.9377,0.1698
429199,-0.0693,-0.9329,0.1771
429229,-0.0629,-0.9294,0.1840
429251,-0.0592,-0.9283,0.1869
429276,-0.0555,-0.9275,0.1896
429298,-0.0485,-0.9269,0.1941
429321,-0.0450,-0.9269,0.1958
429344,-0.0421,-0.9271,0.1971
429365,-0.0376,-0.9280,0.1992
429443,-0.0354,-0.9297,0.2013
429490,-0.0392,-0.9308,0.2025
429515,-0.0433,-0.9315,0.2032
429537,-0.0457,-0.9319,0.2037
429560,-0.0480,-0.9323,0.2041
429599,-0.0546,-0.9337,0.2052
429621,-0.0565,-0.9342,0.2056
429638,-0.0583,-0.9349,0.2057
429661,-0.0598,-0.9357,0.2058
429756,-0.0640,-0.9409,0.2043
429774,-0.0641,-0.9419,0.2037
429791,-0.0640,-0.9429,0.2031
429813,-0.0638,-0.9437,0.2024
429849,-0.0635,-0.9462,0.2003
429869,-0.0634,-0.9469,0.1997
429894,-0.0632,-0.9475,0.1992
429916,-0.0634,-0.9480,0.1987
429938,-0.0636,-0.9491,0.1979
429961,-0.0637,-0.9495,0.1976
430058,-0.0656,-0.9507,0.1974
430105,-0.0660,-0.9497,0.1976
430129,-0.0659,-0.9493,0.1976
430151,-0.0658,-0.9489,0.1976
430173,-0.0652,-0.9479,0.1974
430190,-0.0647,-0.9474,0.1971
430213,-0.0641,-0.9468,0.1969
430235,-0.0635,-0.9464,0.1967
430252,-0.0621,-0.9454,0.1959
430269,-0.0615,-0.9449,0.1957
430349,-0.0602,-0.9429,0.1949
430378,-0.0604,-0.9419,0.1948
430399,-0.0608,-0.9414,0.1948
430423,-0.0619,-0.9407,0.1949
430446,-0.0625,-0.9404,0.1949
430471,-0.0636,-0.9403,0.1947
430525,-0.0645,-0.9412,0.1935
430560,-0.0645,-0.9423,0.1919
430583,-0.0645,-0.9429,0.1910
430654,-0.0637,-0.9463,0.1866
430676,-0.0636,-0.9470,0.1860
430699,-0.0636,-0.9478,0.1854
430721,-0.0636,-0.9486,0.1849
430758,-0.0637,-0.9513,0.1840
430781,-0.0638,-0.9521,0.1837
430805,-0.0640,-0.9530,0.1835
430827,-0.0642,-0.9543,0.1833
430850,-0.0643,-0.9547,0.1833
430867,-0.0645,-0.9551,0.1833
430884,-0.0646,-0.9552,0.1833
430973,-0.0656,-0.9531,0.1830
431004,-0.0657,-0.9526,0.1823
431026,-0.0658,-0.9518,0.1818
431052,-0.0659,-0.9514,0.1812
431072,-0.0659,-0.9512,0.1805
431089,-0.0659,-0.9509,0.1801
431146,-0.0657,-0.9501,0.1786
431169,-0.0657,-0.9500,0.1786
431186,-0.0657,-0.9497,0.1786
431262,-0.0665,-0.9482,0.1798
431279,-0.0667,-0.9479,0.1801
431296,-0.0668,-0.9476,0.1803
431319,-0.0669,-0.9474,0.1805
431356,-0.0670,-0.9471,0.1808
431379,-0.0668,-0.9471,0.1808
431396,-0.0665,-0.9474,0.1808
431419,-0.0664,-0.9476,0.1807
431439,-0.0662,-0.9479,0.1807
431462,-0.0657,-0.9485,0.1804
431485,-0.0656,-0.9487,0.1804
431571,-0.0658,-0.9490,0.1804
431618,-0.0662,-0.9484,0.1807
431643,-0.0663,-0.9482,0.1807
431665,-0.0664,-0.9485,0.1803
431688,-0.0664,-0.9487,0.1801
431728,-0.0663,-0.9501,0.1788
431750,-0.0662,-0.9507,0.1785
431767,-0.0660,-0.9512,0.1781
431790,-0.0660,-0.9515,0.1779
431869,-0.0664,-0.9525,0.1775
431887,-0.0665,-0.9524,0.1775
431911,-0.0667,-0.9523,0.1775
431933,-0.0667,-0.9520,0.1776
431962,-0.0665,-0.9515,0.1775
431981,-0.0664,-0.9513,0.1775
432002,-0.0663,-0.9510,0.1776
432024,-0.0663,-0.9509,0.1776
432043,-0.0662,-0.9507,0.1776
432067,-0.0660,-0.9504,0.1777
432090,-0.0660,-0.9504,0.1777
432194,-0.0662,-0.9506,0.1783
432239,-0.0663,-0.9504,0.1788
432262,-0.0664,-0.9503,0.1788
432279,-0.0664,-0.9502,0.1790
432301,-0.0664,-0.9497,0.1791
432318,-0.0664,-0.9495,0.1790
432355,-0.0667,-0.9490,0.1787
432378,-0.0668,-0.9489,0.1786
432402,-0.0670,-0.9485,0.1782
432489,-0.0674,-0.9481,0.1782
432507,-0.0674,-0.9482,0.1785
432524,-0.0673,-0.9484,0.1786
432547,-0.0673,-0.9485,0.1788
432611,-0.0669,-0.9490,0.1798
432632,-0.0668,-0.9491,0.1799
432654,-0.0667,-0.9495,0.1802
432701,-0.0665,-0.9498,0.1803
432797,-0.0664,-0.9506,0.1803
432827,-0.0665,-0.9507,0.1802
432850,-0.0665,-0.9507,0.1802
432874,-0.0667,-0.9508,0.1802
432897,-0.0667,-0.9509,0.1803
432919,-0.0665,-0.9512,0.1805
432957,-0.0664,-0.9512,0.1805
432980,-0.0663,-0.9510,0.1803
433001,-0.0660,-0.9509,0.1801
433021,-0.0653,-0.9508,0.1791
433097,-0.0635,-0.9518,0.1758
433116,-0.0630,-0.9521,0.1748
433139,-0.0623,-0.9529,0.1733
433158,-0.0620,-0.9534,0.1729
433189,-0.0613,-0.9541,0.1726
433212,-0.0609,-0.9543,0.1729
433236,-0.0607,-0.9542,0.1736
433258,-0.0601,-0.9536,0.1757
433281,-0.0598,-0.9530,0.1770
433298,-0.0597,-0.9523,0.1786
433320,-0.0596,-0.9513,0.1802
433418,-0.0605,-0.9457,0.1908
433460,-0.0616,-0.9443,0.1951
433482,-0.0621,-0.9441,0.1962
433499,-0.0626,-0.9438,0.1971
433520,-0.0630,-0.9437,0.1979
433543,-0.0638,-0.9432,0.1989
433590,-0.0646,-0.9424,0.1993
433614,-0.0646,-0.9421,0.1992
433704,-0.0619,-0.9417,0.1971
433727,-0.0598,-0.9423,0.1958
433744,-0.0587,-0.9427,0.1951
433767,-0.0575,-0.9434,0.1943
433796,-0.0552,-0.9449,0.1934
433819,-0.0542,-0.9458,0.1929
433843,-0.0526,-0.9475,0.1924
433866,-0.0521,-0.9482,0.1923
433888,-0.0518,-0.9489,0.1921
433905,-0.0516,-0.9492,0.1921
433927,-0.0519,-0.9497,0.1923
434012,-0.0543,-0.9491,0.1936
434045,-0.0557,-0.9484,0.1945
434067,-0.0563,-0.9481,0.1948
434089,-0.0569,-0.9478,0.1953
434111,-0.0579,-0.9470,0.1963
434134,-0.0583,-0.9467,0.1967
434151,-0.0587,-0.9464,0.1971
434173,-0.0591,-0.9460,0.1975
434195,-0.0597,-0.9453,0.1982
434214,-0.0599,-0.9449,0.1985
434231,-0.0601,-0.9446,0.1989
434303,-0.0602,-0.9432,0.1996
434334,-0.0599,-0.9429,0.1997
434357,-0.0597,-0.9429,0.1997
434374,-0.0596,-0.9429,0.1996
434396,-0.0592,-0.9431,0.1993
434419,-0.0591,-0.9434,0.1992
434471,-0.0590,-0.9440,0.1989
434494,-0.0590,-0.9442,0.1989
434511,-0.0591,-0.9445,0.1989
434533,-0.0593,-0.9449,0.1990
434644,-0.0598,-0.9456,0.1998
434697,-0.0594,-0.9452,0.2007
434714,-0.0593,-0.9452,0.2009
434736,-0.0593,-0.9451,0.2010
434759,-0.0592,-0.9451,0.2012
434776,-0.0592,-0.9451,0.2013
434798,-0.0593,-0.9451,0.2014
434821,-0.0593,-0.9449,0.2014
434845,-0.0596,-0.9449,0.2014
434929,-0.0603,-0.9446,0.2014
434960,-0.0604,-0.9443,0.2013
434980,-0.0604,-0.9443,0.2012
435003,-0.0603,-0.9443,0.2009
435023,-0.0601,-0.9445,0.2008
435045,-0.0599,-0.9445,0.2007
435062,-0.0597,-0.9446,0.2007
435090,-0.0592,-0.9447,0.2006
435112,-0.0591,-0.9447,0.2004
435136,-0.0588,-0.9448,0.2004
435229,-0.0591,-0.9449,0.2008
435247,-0.0592,-0.9449,0.2009
435264,-0.0594,-0.9449,0.2010
435286,-0.0597,-0.9451,0.2010
435326,-0.0598,-0.9452,0.2010
435349,-0.0598,-0.9453,0.2009
435366,-0.0598,-0.9454,0.2008
435388,-0.0597,-0.9456,0.2004
435411,-0.0597,-0.9457,0.2003
435428,-0.0596,-0.9458,0.2001
435450,-0.0594,-0.9458,0.2000
435526,-0.0592,-0.9457,0.1998
435569,-0.0597,-0.9454,0.2003
435591,-0.0599,-0.9453,0.2006
435614,-0.0603,-0.9452,0.2008
435636,-0.0609,-0.9448,0.2014
435658,-0.0612,-0.9447,0.2015
435708,-0.0618,-0.9442,0.2023
435733,-0.0618,-0.9441,0.2024
435755,-0.0618,-0.9438,0.2028
435856,-0.0610,-0.9432,0.2028
435875,-0.0609,-0.9432,0.2026
435898,-0.0608,-0.9434,0.2024
435920,-0.0608,-0.9436,0.2020
435958,-0.0608,-0.9440,0.2017
435978,-0.0609,-0.9442,0.2015
436001,-0.0610,-0.9445,0.2013
436020,-0.0613,-0.9447,0.2010
436042,-0.0614,-0.9448,0.2010
436059,-0.0615,-0.9448,0.2009
436148,-0.0618,-0.9445,0.2010
436179,-0.0618,-0.9443,0.2010
436202,-0.0618,-0.9443,0.2009
436219,-0.0618,-0.9445,0.2008
436241,-0.0616,-0.9447,0.2004
436264,-0.0616,-0.9449,0.2002
436303,-0.0616,-0.9454,0.1998
436326,-0.0616,-0.9458,0.1996
436345,-0.0616,-0.9459,0.1993
436368,-0.0615,-0.9459,0.1992
436445,-0.0610,-0.9458,0.1986
436462,-0.0609,-0.9458,0.1984
436487,-0.0607,-0.9458,0.1982
436509,-0.0602,-0.9459,0.1978
436539,-0.0599,-0.9459,0.1975
436562,-0.0596,-0.9462,0.1971
436579,-0.0594,-0.9463,0.1970
436602,-0.0593,-0.9464,0.1970
436624,-0.0593,-0.9465,0.1969
436641,-0.0596,-0.9467,0.1969
436658,-0.0598,-0.9467,0.1969
436743,-0.0613,-0.9464,0.1973
436808,-0.0619,-0.9462,0.1975
436826,-0.0620,-0.9460,0.1975
436848,-0.0620,-0.9460,0.1975
436871,-0.0621,-0.9460,0.1976
436888,-0.0621,-0.9460,0.1976
436910,-0.0623,-0.9460,0.1978
436932,-0.0624,-0.9460,0.1978
436949,-0.0625,-0.9460,0.1979
436971,-0.0625,-0.9460,0.1979
437061,-0.0629,-0.9457,0.1987
437092,-0.0627,-0.9456,0.1987
437115,-0.0625,-0.9456,0.1989
437132,-0.0624,-0.9456,0.1989
437155,-0.0623,-0.9456,0.1989
437177,-0.0618,-0.9456,0.1989
437214,-0.0614,-0.9456,0.1989
437237,-0.0612,-0.9456,0.1990
437261,-0.0610,-0.9454,0.1991
437283,-0.0608,-0.9453,0.1995
437361,-0.0609,-0.9451,0.2001
437394,-0.0612,-0.9449,0.2003
437417,-0.0614,-0.9448,0.2003
437436,-0.0614,-0.9447,0.2003
437459,-0.0614,-0.9447,0.2003
437481,-0.0614,-0.9445,0.2003
437498,-0.0613,-0.9443,0.2003
437521,-0.0612,-0.9443,0.2003
437543,-0.0610,-0.9442,0.2003
437560,-0.0609,-0.9442,0.2002
437577,-0.0608,-0.9442,0.2002
437668,-0.0610,-0.9451,0.2002
437697,-0.0614,-0.9452,0.2003
437717,-0.0615,-0.9452,0.2004
437742,-0.0618,-0.9451,0.2006
437764,-0.0619,-0.9449,0.2008
437782,-0.0619,-0.9447,0.2012
437855,-0.0612,-0.9445,0.2017
437872,-0.0607,-0.9445,0.2017
437955,-0.0587,-0.9451,0.2014
437977,-0.0585,-0.9452,0.2014
438000,-0.0583,-0.9454,0.2013
438020,-0.0585,-0.9454,0.2013
438051,-0.0591,-0.9452,0.2013
438073,-0.0594,-0.9451,0.2013
438090,-0.0598,-0.9448,0.2013
438113,-0.0602,-0.9445,0.2013
438135,-0.0609,-0.9440,0.2013
438152,-0.0612,-0.9437,0.2013
438174,-0.0614,-0.9435,0.2013
438191,-0.0615,-0.9434,0.2012
438276,-0.0618,-0.9437,0.2008
438307,-0.0619,-0.9443,0.2007
438330,-0.0620,-0.9446,0.2007
438347,-0.0621,-0.9448,0.2007
438369,-0.0625,-0.9452,0.2008
438393,-0.0627,-0.9453,0.2009
438430,-0.0630,-0.9454,0.2010
438453,-0.0630,-0.9456,0.2010
438479,-0.0627,-0.9457,0.2009
438578,-0.0599,-0.9470,0.1998
438598,-0.0593,-0.9473,0.1997
438620,-0.0588,-0.9475,0.1997
438642,-0.0581,-0.9476,0.1998
438682,-0.0580,-0.9473,0.2002
438705,-0.0583,-0.9467,0.2008
438724,-0.0586,-0.9462,0.2013
438744,-0.0590,-0.9457,0.2017
438767,-0.0593,-0.9452,0.2020
438784,-0.0597,-0.9446,0.2024
438802,-0.0601,-0.9440,0.2028
438884,-0.0602,-0.9420,0.2035
438943,-0.0592,-0.9421,0.2030
438960,-0.0590,-0.9424,0.2028
438981,-0.0588,-0.9426,0.2026
439003,-0.0587,-0.9430,0.2024
439047,-0.0588,-0.9437,0.2021
439070,-0.0591,-0.9440,0.2021
439094,-0.0594,-0.9442,0.2021
439177,-0.0605,-0.9443,0.2021
439194,-0.0607,-0.9443,0.2021
439211,-0.0607,-0.9442,0.2021
439233,-0.0605,-0.9442,0.2020
439269,-0.0603,-0.9440,0.2017
439292,-0.0599,-0.9440,0.2013
439309,-0.0597,-0.9441,0.2010
439331,-0.0596,-0.9442,0.2008
439354,-0.0594,-0.9446,0.2007
439378,-0.0593,-0.9456,0.2004
439401,-0.0592,-0.9462,0.2004
439498,-0.0586,-0.9500,0.1998
439531,-0.0580,-0.9506,0.2000
439554,-0.0575,-0.9506,0.2003
439571,-0.0571,-0.9504,0.2007
439593,-0.0566,-0.9497,0.2017
439617,-0.0565,-0.9491,0.2024
439654,-0.0566,-0.9475,0.2039
439677,-0.0574,-0.9454,0.2056
439701,-0.0580,-0.9443,0.2064
439804,-0.0627,-0.9381,0.2112
439825,-0.0632,-0.9376,0.2118
439847,-0.0637,-0.9373,0.2126
439870,-0.0637,-0.9374,0.2129
439928,-0.0618,-0.9402,0.2134
439946,-0.0608,-0.9413,0.2133
439966,-0.0598,-0.9424,0.2131
439990,-0.0588,-0.9432,0.2129
440011,-0.0579,-0.9441,0.2126
440101,-0.0538,-0.9446,0.2129
440131,-0.0538,-0.9436,0.2135
440153,-0.0540,-0.9430,0.2139
440178,-0.0543,-0.9423,0.2142
440200,-0.0552,-0.9412,0.2151
440223,-0.0558,-0.9406,0.2155
440262,-0.0568,-0.9395,0.2162
440285,-0.0577,-0.9386,0.2169
440302,-0.0581,-0.9382,0.2172
440325,-0.0585,-0.9380,0.2174
440392,-0.0592,-0.9374,0.2179
440410,-0.0593,-0.9374,0.2179
440434,-0.0594,-0.9376,0.2178
440457,-0.0594,-0.9379,0.2177
440486,-0.0596,-0.9384,0.2174
440509,-0.0597,-0.9387,0.2173
440536,-0.0597,-0.9393,0.2170
440559,-0.0598,-0.9396,0.2168
440581,-0.0598,-0.9398,0.2166
440598,-0.0599,-0.9399,0.2164
440620,-0.0599,-0.9402,0.2158
440725,-0.0602,-0.9412,0.2140
440758,-0.0602,-0.9415,0.2133
440781,-0.0603,-0.9418,0.2130
440798,-0.0604,-0.9420,0.2128
440820,-0.0607,-0.9425,0.2124
440844,-0.0608,-0.9427,0.2122
440908,-0.0614,-0.9435,0.2114
440925,-0.0615,-0.9436,0.2113
441012,-0.0615,-0.9435,0.2106
441034,-0.0615,-0.9435,0.2104
441051,-0.0614,-0.9434,0.2103
441070,-0.0612,-0.9434,0.2101
441115,-0.0609,-0.9434,0.2098
441138,-0.0608,-0.9434,0.2095
441155,-0.0608,-0.9435,0.2094
441178,-0.0609,-0.9435,0.2092
441200,-0.0609,-0.9436,0.2091
441217,-0.0609,-0.9436,0.2090
441239,-0.0610,-0.9437,0.2087
441325,-0.0612,-0.9438,0.2080
441357,-0.0610,-0.9440,0.2078
441379,-0.0609,-0.9441,0.2076
441403,-0.0608,-0.9441,0.2075
441425,-0.0605,-0.9442,0.2074
441448,-0.0604,-0.9442,0.2074
441465,-0.0603,-0.9442,0.2074
441487,-0.0603,-0.9441,0.2074
441509,-0.0603,-0.9441,0.2075
441526,-0.0603,-0.9440,0.2076
441543,-0.0603,-0.9440,0.2076
441612,-0.0607,-0.9441,0.2075
441645,-0.0609,-0.9442,0.2075
441668,-0.0609,-0.9441,0.2075
441685,-0.0610,-0.9441,0.2075
441707,-0.0613,-0.9438,0.2075
441729,-0.0615,-0.9437,0.2075
441769,-0.0619,-0.9435,0.2075
441792,-0.0623,-0.9434,0.2075
441809,-0.0624,-0.9434,0.2075
441832,-0.0626,-0.9434,0.2075
