timestamp,acc_x,acc_y,acc_z
198125,0.0474,-0.9659,0.0916
198310,0.0464,-0.9663,0.0900
198326,0.0464,-0.9664,0.0892
198351,0.0465,-0.9666,0.0881
198373,0.0465,-0.9666,0.0875
198399,0.0466,-0.9666,0.0864
198421,0.0468,-0.9667,0.0859
198454,0.0469,-0.9666,0.0848
198471,0.0469,-0.9666,0.0845
198494,0.0471,-0.9666,0.0836
198516,0.0471,-0.9666,0.0834
198533,0.0471,-0.9664,0.0831
198550,0.0471,-0.9664,0.0829
198572,0.0471,-0.9664,0.0828
198605,0.0471,-0.9663,0.0829
198628,0.0470,-0.9663,0.0833
198653,0.0470,-0.9662,0.0837
198676,0.0469,-0.9661,0.0848
198698,0.0469,-0.9659,0.0854
198715,0.0469,-0.9659,0.0861
198761,0.0471,-0.9657,0.0880
198800,0.0471,-0.9657,0.0891
198823,0.0471,-0.9657,0.0900
198845,0.0471,-0.9657,0.0902
198868,0.0471,-0.9657,0.0903
198891,0.0470,-0.9658,0.0902
198908,0.0469,-0.9659,0.0901
198930,0.0469,-0.9661,0.0900
198952,0.0468,-0.9662,0.0897
198969,0.0466,-0.9663,0.0895
198987,0.0465,-0.9666,0.0889
199009,0.0464,-0.9667,0.0885
199049,0.0464,-0.9670,0.0879
199092,0.0465,-0.9674,0.0872
199114,0.0464,-0.9675,0.0870
199136,0.0461,-0.9675,0.0868
199156,0.0460,-0.9674,0.0868
199174,0.0458,-0.9673,0.0867
199192,0.0455,-0.9672,0.0865
199214,0.0453,-0.9672,0.0863
199276,0.0439,-0.9672,0.0854
199297,0.0437,-0.9675,0.0853
199320,0.0432,-0.9685,0.0854
199342,0.0431,-0.9691,0.0856
199383,0.0432,-0.9703,0.0869
199401,0.0433,-0.9703,0.0875
199442,0.0436,-0.9698,0.0887
199465,0.0441,-0.9688,0.0900
199489,0.0443,-0.9680,0.0905
199511,0.0447,-0.9673,0.0909
199534,0.0453,-0.9658,0.0917
199551,0.0457,-0.9651,0.0919
199573,0.0460,-0.9644,0.0923
199598,0.0465,-0.9631,0.0929
199633,0.0471,-0.9623,0.0938
199655,0.0472,-0.9619,0.0942
199692,0.0476,-0.9615,0.0956
199709,0.0477,-0.9614,0.0964
199732,0.0480,-0.9614,0.0980
199754,0.0480,-0.9615,0.0989
199771,0.0480,-0.9618,0.0996
199794,0.0480,-0.9623,0.1008
199811,0.0479,-0.9625,0.1012
199843,0.0479,-0.9631,0.1018
199865,0.0477,-0.9635,0.1019
199886,0.0477,-0.9637,0.1021
199903,0.0476,-0.9641,0.1019
199926,0.0475,-0.9646,0.1017
199948,0.0475,-0.9648,0.1014
199989,0.0475,-0.9652,0.1010
200007,0.0474,-0.9655,0.1005
200039,0.0474,-0.9656,0.1000
200062,0.0474,-0.9656,0.0997
200087,0.0474,-0.9656,0.0995
200105,0.0474,-0.9655,0.0990
200137,0.0474,-0.9655,0.0988
200157,0.0474,-0.9653,0.0986
200176,0.0474,-0.9652,0.0985
200198,0.0474,-0.9651,0.0984
200255,0.0474,-0.9647,0.0983
200295,0.0474,-0.9647,0.0984
200317,0.0474,-0.9646,0.0984
200336,0.0474,-0.9646,0.0985
200358,0.0474,-0.9646,0.0986
200378,0.0474,-0.9646,0.0986
200399,0.0474,-0.9646,0.0988
200418,0.0474,-0.9646,0.0989
200440,0.0474,-0.9646,0.0989
200483,0.0474,-0.9647,0.0990
200506,0.0474,-0.9647,0.0990
200523,0.0474,-0.9648,0.0990
200541,0.0474,-0.9648,0.0990
200563,0.0474,-0.9648,0.0990
200597,0.0474,-0.9650,0.0990
200617,0.0474,-0.9650,0.0990
200639,0.0474,-0.9651,0.0989
200661,0.0474,-0.9651,0.0989
200691,0.0474,-0.9651,0.0989
200714,0.0474,-0.9651,0.0989
200738,0.0475,-0.9651,0.0989
200760,0.0475,-0.9651,0.0989
200783,0.0475,-0.9650,0.0989
200800,0.0475,-0.9650,0.0989
200817,0.0475,-0.9650,0.0989
200839,0.0475,-0.9650,0.0989
200879,0.0475,-0.9648,0.0989
200913,0.0475,-0.9647,0.0989
200930,0.0475,-0.9647,0.0989
200952,0.0475,-0.9647,0.0989
200974,0.0475,-0.9647,0.0989
200991,0.0475,-0.9647,0.0989
201014,0.0475,-0.9647,0.0990
201031,0.0475,-0.9647,0.0990
201071,0.0475,-0.9647,0.0991
201090,0.0475,-0.9647,0.0992
201115,0.0475,-0.9648,0.0994
201136,0.0475,-0.9648,0.0995
201159,0.0475,-0.9650,0.0995
201183,0.0475,-0.9650,0.0995
201219,0.0475,-0.9651,0.0994
201237,0.0475,-0.9651,0.0992
201291,0.0475,-0.9650,0.1002
201308,0.0475,-0.9648,0.1012
201330,0.0475,-0.9646,0.1027
201348,0.0475,-0.9644,0.1049
201373,0.0474,-0.9635,0.1112
201393,0.0475,-0.9629,0.1156
201415,0.0475,-0.9622,0.1206
201432,0.0475,-0.9613,0.1265
201461,0.0475,-0.9594,0.1407
201483,0.0475,-0.9583,0.1490
201517,0.0474,-0.9558,0.1681
201534,0.0472,-0.9546,0.1785
201557,0.0471,-0.9521,0.2004
201579,0.0470,-0.9509,0.2115
201596,0.0468,-0.9498,0.2224
201619,0.0465,-0.9479,0.2421
201636,0.0463,-0.9471,0.2504
201668,0.0459,-0.9462,0.2620
201690,0.0458,-0.9462,0.2648
201709,0.0455,-0.9463,0.2653
201726,0.0453,-0.9468,0.2632
201748,0.0450,-0.9475,0.2584
201771,0.0446,-0.9497,0.2410
201788,0.0443,-0.9512,0.2286
201822,0.0438,-0.9547,0.1976
201839,0.0436,-0.9567,0.1797
201865,0.0433,-0.9609,0.1407
201887,0.0432,-0.9631,0.1205
201910,0.0432,-0.9653,0.1002
201933,0.0431,-0.9696,0.0610
201955,0.0432,-0.9717,0.0427
201979,0.0432,-0.9735,0.0256
202002,0.0433,-0.9769,-0.0042
202024,0.0435,-0.9784,-0.0167
202043,0.0435,-0.9797,-0.0275
202066,0.0437,-0.9817,-0.0437
202088,0.0438,-0.9823,-0.0492
202150,0.0446,-0.9835,-0.0565
202169,0.0447,-0.9835,-0.0553
202191,0.0448,-0.9834,-0.0531
202212,0.0452,-0.9827,-0.0458
202229,0.0453,-0.9822,-0.0408
202247,0.0454,-0.9817,-0.0349
202269,0.0455,-0.9810,-0.0283
202331,0.0459,-0.9772,0.0046
202349,0.0459,-0.9761,0.0139
202371,0.0459,-0.9749,0.0234
202394,0.0459,-0.9725,0.0426
202424,0.0459,-0.9702,0.0610
202442,0.0458,-0.9691,0.0696
202459,0.0458,-0.9680,0.0776
202481,0.0458,-0.9670,0.0852
202516,0.0457,-0.9655,0.0979
202538,0.0457,-0.9647,0.1031
202563,0.0455,-0.9637,0.1110
202585,0.0455,-0.9634,0.1138
202608,0.0454,-0.9629,0.1168
202625,0.0454,-0.9628,0.1173
202643,0.0454,-0.9628,0.1172
202660,0.0454,-0.9629,0.1165
202682,0.0454,-0.9630,0.1152
202708,0.0453,-0.9634,0.1118
202744,0.0454,-0.9639,0.1074
202761,0.0454,-0.9642,0.1051
202783,0.0454,-0.9645,0.1028
202806,0.0454,-0.9651,0.0983
202823,0.0454,-0.9653,0.0962
202845,0.0454,-0.9656,0.0944
202867,0.0455,-0.9658,0.0927
202893,0.0455,-0.9661,0.0901
202914,0.0455,-0.9662,0.0892
202939,0.0455,-0.9664,0.0881
202961,0.0455,-0.9664,0.0880
202984,0.0455,-0.9664,0.0883
203001,0.0455,-0.9664,0.0886
203042,0.0455,-0.9663,0.0897
203080,0.0455,-0.9662,0.0911
203100,0.0455,-0.9661,0.0925
203124,0.0455,-0.9661,0.0933
203144,0.0455,-0.9659,0.0939
203165,0.0455,-0.9658,0.0952
203190,0.0455,-0.9658,0.0957
203210,0.0455,-0.9657,0.0962
203229,0.0454,-0.9657,0.0966
203254,0.0454,-0.9656,0.0972
203272,0.0454,-0.9656,0.0973
203294,0.0454,-0.9656,0.0974
203386,0.0454,-0.9655,0.0972
203402,0.0454,-0.9655,0.0969
203423,0.0454,-0.9655,0.0968
203444,0.0454,-0.9655,0.0963
203462,0.0454,-0.9655,0.0962
203482,0.0454,-0.9655,0.0959
203504,0.0454,-0.9655,0.0957
203546,0.0454,-0.9655,0.0953
203568,0.0454,-0.9656,0.0952
203593,0.0454,-0.9656,0.0950
203615,0.0454,-0.9656,0.0948
203646,0.0454,-0.9656,0.0948
203663,0.0454,-0.9656,0.0948
203680,0.0454,-0.9656,0.0948
203702,0.0454,-0.9656,0.0948
203735,0.0454,-0.9657,0.0948
203755,0.0454,-0.9657,0.0948
203780,0.0454,-0.9657,0.0950
203802,0.0454,-0.9657,0.0950
203825,0.0454,-0.9657,0.0951
203842,0.0454,-0.9657,0.0952
203860,0.0454,-0.9657,0.0953
203877,0.0454,-0.9657,0.0955
203899,0.0454,-0.9657,0.0956
203924,0.0454,-0.9656,0.0958
203959,0.0454,-0.9655,0.0963
203976,0.0454,-0.9655,0.0964
203998,0.0454,-0.9655,0.0967
204021,0.0453,-0.9653,0.0970
204038,0.0453,-0.9653,0.0972
204060,0.0453,-0.9653,0.0972
204083,0.0453,-0.9652,0.0972
204117,0.0453,-0.9652,0.0972
204138,0.0452,-0.9652,0.0972
204164,0.0452,-0.9651,0.0972
204183,0.0452,-0.9651,0.0973
204206,0.0452,-0.9650,0.0979
204228,0.0452,-0.9650,0.0986
204263,0.0450,-0.9647,0.1013
204281,0.0450,-0.9645,0.1035
204345,0.0450,-0.9630,0.1179
204365,0.0450,-0.9618,0.1283
204387,0.0450,-0.9611,0.1342
204409,0.0450,-0.9603,0.1404
204426,0.0450,-0.9596,0.1467
204447,0.0449,-0.9581,0.1597
204469,0.0449,-0.9574,0.1660
204511,0.0448,-0.9561,0.1781
204534,0.0448,-0.9548,0.1888
204575,0.0447,-0.9540,0.1979
204596,0.0444,-0.9534,0.2048
204618,0.0444,-0.9531,0.2074
204640,0.0443,-0.9529,0.2094
204657,0.0443,-0.9528,0.2107
204680,0.0442,-0.9526,0.2114
204697,0.0441,-0.9526,0.2109
204732,0.0439,-0.9525,0.2085
204754,0.0439,-0.9525,0.2067
204774,0.0438,-0.9526,0.2045
204791,0.0438,-0.9526,0.2020
204814,0.0438,-0.9529,0.1968
204836,0.0438,-0.9531,0.1940
204863,0.0438,-0.9539,0.1879
204885,0.0438,-0.9543,0.1846
204902,0.0438,-0.9548,0.1808
204928,0.0441,-0.9561,0.1718
204949,0.0441,-0.9568,0.1660
204974,0.0442,-0.9589,0.1521
204996,0.0443,-0.9601,0.1437
205018,0.0444,-0.9615,0.1342
205035,0.0446,-0.9631,0.1238
205058,0.0449,-0.9666,0.1007
205083,0.0450,-0.9684,0.0883
205098,0.0454,-0.9701,0.0754
205122,0.0460,-0.9735,0.0494
205142,0.0464,-0.9751,0.0366
205183,0.0471,-0.9779,0.0125
205209,0.0477,-0.9801,-0.0083
205231,0.0481,-0.9811,-0.0170
205256,0.0486,-0.9822,-0.0298
205275,0.0487,-0.9823,-0.0337
205297,0.0490,-0.9823,-0.0355
205315,0.0491,-0.9821,-0.0354
205369,0.0494,-0.9783,-0.0134
205386,0.0494,-0.9768,-0.0028
205408,0.0494,-0.9751,0.0095
205430,0.0494,-0.9733,0.0234
205446,0.0493,-0.9713,0.0387
205481,0.0491,-0.9672,0.0721
205504,0.0487,-0.9631,0.1075
205523,0.0485,-0.9612,0.1251
205545,0.0483,-0.9594,0.1422
205568,0.0480,-0.9561,0.1740
205604,0.0477,-0.9535,0.2009
205622,0.0477,-0.9524,0.2120
205646,0.0477,-0.9514,0.2217
205669,0.0479,-0.9500,0.2358
205691,0.0481,-0.9495,0.2404
205711,0.0482,-0.9491,0.2434
205732,0.0487,-0.9487,0.2450
205754,0.0490,-0.9487,0.2437
205810,0.0499,-0.9496,0.2321
205827,0.0502,-0.9502,0.2256
205850,0.0507,-0.9519,0.2094
205872,0.0509,-0.9529,0.1995
205889,0.0510,-0.9541,0.1885
205912,0.0513,-0.9567,0.1635
205929,0.0514,-0.9581,0.1498
205972,0.0515,-0.9613,0.1206
205995,0.0515,-0.9647,0.0905
206019,0.0515,-0.9664,0.0757
206037,0.0515,-0.9680,0.0612
206060,0.0513,-0.9713,0.0341
206097,0.0511,-0.9741,0.0104
206118,0.0510,-0.9755,0.0001
206136,0.0509,-0.9766,-0.0090
206156,0.0508,-0.9777,-0.0172
206173,0.0507,-0.9792,-0.0298
206203,0.0505,-0.9800,-0.0343
206225,0.0504,-0.9807,-0.0394
206248,0.0504,-0.9808,-0.0398
206270,0.0504,-0.9808,-0.0387
206291,0.0504,-0.9803,-0.0315
206315,0.0504,-0.9797,-0.0254
206341,0.0505,-0.9778,-0.0078
206363,0.0505,-0.9766,0.0033
206394,0.0504,-0.9734,0.0297
206454,0.0503,-0.9659,0.0924
206477,0.0502,-0.9640,0.1086
206499,0.0502,-0.9620,0.1246
206522,0.0499,-0.9586,0.1548
206539,0.0498,-0.9570,0.1686
206556,0.0497,-0.9557,0.1815
206578,0.0496,-0.9545,0.1931
206621,0.0491,-0.9517,0.2207
206643,0.0490,-0.9510,0.2272
206668,0.0487,-0.9500,0.2362
206699,0.0486,-0.9495,0.2400
206721,0.0482,-0.9493,0.2400
206741,0.0481,-0.9495,0.2389
206762,0.0480,-0.9497,0.2367
206785,0.0479,-0.9507,0.2288
206818,0.0479,-0.9523,0.2159
206840,0.0480,-0.9534,0.2078
206865,0.0482,-0.9558,0.1880
206887,0.0483,-0.9572,0.1764
206909,0.0485,-0.9587,0.1638
206929,0.0486,-0.9602,0.1504
206954,0.0490,-0.9635,0.1215
207003,0.0497,-0.9686,0.0758
207031,0.0500,-0.9718,0.0461
207053,0.0502,-0.9733,0.0320
207080,0.0505,-0.9760,0.0062
207100,0.0508,-0.9771,-0.0051
207120,0.0509,-0.9781,-0.0155
207142,0.0511,-0.9790,-0.0247
207159,0.0513,-0.9797,-0.0327
207182,0.0516,-0.9810,-0.0452
207217,0.0518,-0.9817,-0.0530
207238,0.0519,-0.9818,-0.0552
207263,0.0519,-0.9819,-0.0566
207304,0.0519,-0.9817,-0.0542
207329,0.0519,-0.9811,-0.0475
207351,0.0519,-0.9805,-0.0422
207372,0.0519,-0.9797,-0.0354
207443,0.0520,-0.9735,0.0243
207464,0.0520,-0.9717,0.0416
207486,0.0520,-0.9696,0.0605
207509,0.0521,-0.9651,0.1021
207526,0.0521,-0.9626,0.1240
207548,0.0521,-0.9602,0.1465
207565,0.0521,-0.9576,0.1688
207604,0.0522,-0.9526,0.2321
207633,0.0522,-0.9480,0.2506
207656,0.0522,-0.9441,0.2826
207680,0.0522,-0.9424,0.2954
207702,0.0522,-0.9410,0.3059
207725,0.0521,-0.9392,0.3193
207742,0.0520,-0.9388,0.3219
207770,0.0515,-0.9392,0.3184
207792,0.0513,-0.9401,0.3121
207837,0.0502,-0.9443,0.2761
207859,0.0498,-0.9464,0.2589
207907,0.0488,-0.9537,0.1959
207929,0.0487,-0.9564,0.1725
207946,0.0486,-0.9591,0.1484
207971,0.0486,-0.9646,0.1006
207992,0.0487,-0.9673,0.0775
208021,0.0490,-0.9723,0.0348
208043,0.0492,-0.9746,0.0156
208068,0.0497,-0.9785,-0.0171
208086,0.0500,-0.9801,-0.0305
208106,0.0503,-0.9817,-0.0419
208128,0.0507,-0.9829,-0.0513
208150,0.0513,-0.9847,-0.0641
208172,0.0516,-0.9854,-0.0677
208190,0.0520,-0.9857,-0.0696
208246,0.0533,-0.9844,-0.0605
208263,0.0537,-0.9834,-0.0542
208281,0.0540,-0.9822,-0.0460
208303,0.0542,-0.9807,-0.0363
208324,0.0544,-0.9790,-0.0245
208347,0.0548,-0.9750,0.0042
208369,0.0548,-0.9727,0.0210
208437,0.0548,-0.9620,0.1028
208452,0.0548,-0.9592,0.1257
208472,0.0547,-0.9563,0.1490
208495,0.0544,-0.9506,0.1956
208526,0.0542,-0.9452,0.2401
208543,0.0541,-0.9427,0.2607
208565,0.0540,-0.9406,0.2800
208582,0.0540,-0.9385,0.2974
208617,0.0538,-0.9351,0.3248
208639,0.0537,-0.9338,0.3341
208664,0.0535,-0.9330,0.3423
208682,0.0533,-0.9332,0.3407
208704,0.0532,-0.9342,0.3353
208729,0.0529,-0.9375,0.3134
208751,0.0526,-0.9398,0.2972
208774,0.0522,-0.9457,0.2565
208816,0.0520,-0.9526,0.2074
208855,0.0518,-0.9633,0.1267
208875,0.0518,-0.9667,0.1000
208897,0.0518,-0.9698,0.0741
208919,0.0518,-0.9728,0.0493
208937,0.0519,-0.9780,0.0050
208959,0.0520,-0.9802,-0.0142
208981,0.0520,-0.9821,-0.0310
209012,0.0521,-0.9849,-0.0576
209033,0.0521,-0.9857,-0.0674
209058,0.0522,-0.9868,-0.0802
209075,0.0522,-0.9869,-0.0835
209095,0.0522,-0.9869,-0.0850
209119,0.0522,-0.9863,-0.0833
209153,0.0524,-0.9854,-0.0769
209174,0.0524,-0.9847,-0.0725
209192,0.0525,-0.9840,-0.0676
209214,0.0526,-0.9833,-0.0625
209237,0.0527,-0.9818,-0.0519
209266,0.0527,-0.9805,-0.0422
209288,0.0529,-0.9799,-0.0380
209312,0.0529,-0.9792,-0.0342
209335,0.0529,-0.9785,-0.0282
209354,0.0529,-0.9783,-0.0261
209378,0.0529,-0.9781,-0.0244
209396,0.0529,-0.9780,-0.0233
209419,0.0530,-0.9780,-0.0222
209456,0.0530,-0.9784,-0.0225
209514,0.0530,-0.9789,-0.0214
209535,0.0530,-0.9789,-0.0198
209558,0.0530,-0.9786,-0.0175
209581,0.0529,-0.9780,-0.0103
209622,0.0529,-0.9769,0.0005
209645,0.0529,-0.9755,0.0143
209662,0.0529,-0.9745,0.0221
209684,0.0529,-0.9735,0.0303
209706,0.0529,-0.9725,0.0387
209723,0.0527,-0.9716,0.0471
209765,0.0527,-0.9686,0.0717
209789,0.0527,-0.9677,0.0790
209806,0.0527,-0.9668,0.0857
209829,0.0526,-0.9655,0.0969
209872,0.0526,-0.9644,0.1049
209893,0.0527,-0.9637,0.1095
209917,0.0527,-0.9636,0.1106
209939,0.0527,-0.9635,0.1112
209962,0.0527,-0.9635,0.1106
209981,0.0527,-0.9635,0.1096
209999,0.0527,-0.9636,0.1083
210020,0.0527,-0.9639,0.1067
210093,0.0527,-0.9648,0.0974
210109,0.0527,-0.9650,0.0956
210130,0.0527,-0.9652,0.0940
210150,0.0527,-0.9653,0.0924
210174,0.0527,-0.9656,0.0900
210206,0.0527,-0.9658,0.0884
210228,0.0527,-0.9659,0.0878
210258,0.0527,-0.9659,0.0873
210280,0.0527,-0.9659,0.0872
210305,0.0527,-0.9659,0.0875
210327,0.0527,-0.9659,0.0879
210366,0.0527,-0.9658,0.0887
210385,0.0527,-0.9657,0.0897
210405,0.0527,-0.9656,0.0902
210423,0.0527,-0.9656,0.0908
210487,0.0527,-0.9653,0.0925
210509,0.0527,-0.9652,0.0929
210530,0.0527,-0.9652,0.0933
210553,0.0527,-0.9652,0.0936
210576,0.0527,-0.9652,0.0938
210599,0.0527,-0.9651,0.0939
210623,0.0527,-0.9651,0.0939
210663,0.0527,-0.9652,0.0938
210704,0.0527,-0.9652,0.0935
210721,0.0527,-0.9652,0.0934
210743,0.0527,-0.9652,0.0933
210766,0.0527,-0.9652,0.0930
210783,0.0527,-0.9652,0.0929
210805,0.0527,-0.9652,0.0929
210830,0.0527,-0.9652,0.0927
210859,0.0527,-0.9653,0.0927
210878,0.0527,-0.9653,0.0925
210902,0.0527,-0.9653,0.0924
210921,0.0527,-0.9653,0.0924
210944,0.0526,-0.9653,0.0924
210968,0.0526,-0.9655,0.0924
210999,0.0526,-0.9655,0.0924
211021,0.0526,-0.9655,0.0924
211055,0.0526,-0.9655,0.0924
211077,0.0525,-0.9655,0.0925
211098,0.0525,-0.9655,0.0925
211120,0.0525,-0.9656,0.0925
211142,0.0525,-0.9656,0.0927
211159,0.0525,-0.9656,0.0927
211181,0.0525,-0.9656,0.0927
211203,0.0525,-0.9656,0.0927
211220,0.0525,-0.9656,0.0928
211237,0.0525,-0.9656,0.0928
211260,0.0526,-0.9656,0.0928
211330,0.0526,-0.9656,0.0927
211347,0.0526,-0.9656,0.0927
211365,0.0526,-0.9656,0.0927
211388,0.0527,-0.9655,0.0927
211411,0.0527,-0.9655,0.0927
211434,0.0527,-0.9655,0.0927
211452,0.0527,-0.9655,0.0927
211524,0.0526,-0.9653,0.0931
211541,0.0526,-0.9653,0.0933
211562,0.0526,-0.9653,0.0936
211608,0.0525,-0.9651,0.0947
211625,0.0525,-0.9651,0.0953
211649,0.0525,-0.9650,0.0961
211672,0.0525,-0.9647,0.0984
211701,0.0525,-0.9642,0.1027
211723,0.0525,-0.9640,0.1058
211747,0.0525,-0.9636,0.1097
211770,0.0525,-0.9625,0.1202
211792,0.0525,-0.9619,0.1268
211812,0.0525,-0.9612,0.1340
211835,0.0525,-0.9595,0.1506
211852,0.0525,-0.9585,0.1597
211895,0.0524,-0.9564,0.1787
211930,0.0520,-0.9531,0.2075
211948,0.0518,-0.9520,0.2166
211970,0.0515,-0.9509,0.2251
211992,0.0513,-0.9501,0.2329
212009,0.0511,-0.9495,0.2399
212032,0.0507,-0.9486,0.2506
212056,0.0504,-0.9485,0.2540
212085,0.0499,-0.9489,0.2567
212106,0.0497,-0.9493,0.2557
212133,0.0494,-0.9508,0.2489
212154,0.0493,-0.9518,0.2432
212177,0.0491,-0.9540,0.2268
212194,0.0491,-0.9553,0.2164
212245,0.0492,-0.9597,0.1775
212284,0.0492,-0.9629,0.1469
212306,0.0493,-0.9645,0.1307
212323,0.0493,-0.9659,0.1145
212346,0.0496,-0.9690,0.0824
212368,0.0497,-0.9703,0.0669
212387,0.0498,-0.9717,0.0521
212410,0.0500,-0.9740,0.0253
212432,0.0502,-0.9751,0.0134
212454,0.0503,-0.9760,0.0029
212473,0.0507,-0.9772,-0.0133
212495,0.0508,-0.9775,-0.0186
212590,0.0516,-0.9750,-0.0009
212613,0.0516,-0.9738,0.0104
212635,0.0518,-0.9723,0.0236
212660,0.0518,-0.9689,0.0547
212677,0.0518,-0.9669,0.0720
212699,0.0518,-0.9650,0.0901
212717,0.0518,-0.9629,0.1084
212746,0.0516,-0.9587,0.1445
212769,0.0516,-0.9550,0.1777
212793,0.0515,-0.9532,0.1925
212815,0.0515,-0.9518,0.2057
212850,0.0513,-0.9495,0.2269
212868,0.0510,-0.9480,0.2404
212889,0.0509,-0.9478,0.2440
212911,0.0507,-0.9476,0.2455
212940,0.0504,-0.9484,0.2426
212960,0.0502,-0.9490,0.2382
212985,0.0499,-0.9508,0.2240
213007,0.0498,-0.9520,0.2144
213029,0.0497,-0.9532,0.2031
213046,0.0496,-0.9547,0.1906
213069,0.0494,-0.9580,0.1619
213086,0.0494,-0.9597,0.1462
213128,0.0494,-0.9633,0.1135
213158,0.0494,-0.9669,0.0808
213182,0.0494,-0.9705,0.0498
213202,0.0494,-0.9720,0.0355
213223,0.0496,-0.9736,0.0222
213248,0.0497,-0.9763,-0.0010
213270,0.0498,-0.9774,-0.0107
213287,0.0499,-0.9785,-0.0192
213322,0.0502,-0.9801,-0.0323
213345,0.0505,-0.9811,-0.0404
213369,0.0507,-0.9813,-0.0425
213391,0.0509,-0.9816,-0.0432
213414,0.0513,-0.9813,-0.0402
213431,0.0514,-0.9810,-0.0364
213474,0.0518,-0.9796,-0.0240
213542,0.0522,-0.9731,0.0336
213559,0.0522,-0.9714,0.0487
213581,0.0522,-0.9696,0.0647
213603,0.0521,-0.9677,0.0813
213620,0.0521,-0.9657,0.0983
213638,0.0520,-0.9637,0.1152
213660,0.0518,-0.9598,0.1484
213705,0.0515,-0.9562,0.1790
213728,0.0511,-0.9526,0.2053
213762,0.0507,-0.9491,0.2267
213784,0.0504,-0.9476,0.2352
213809,0.0497,-0.9453,0.2480
213831,0.0493,-0.9445,0.2522
213853,0.0490,-0.9440,0.2548
213870,0.0486,-0.9437,0.2556
213891,0.0479,-0.9443,0.2521
213913,0.0475,-0.9449,0.2476
213956,0.0468,-0.9489,0.2227
213976,0.0466,-0.9506,0.2108
214000,0.0465,-0.9525,0.1973
214023,0.0465,-0.9568,0.1664
214076,0.0468,-0.9637,0.1141
214095,0.0469,-0.9661,0.0963
214113,0.0471,-0.9684,0.0787
214134,0.0475,-0.9725,0.0452
214171,0.0479,-0.9762,0.0155
214190,0.0482,-0.9779,0.0024
214214,0.0485,-0.9792,-0.0093
214237,0.0490,-0.9816,-0.0282
214255,0.0492,-0.9824,-0.0353
214283,0.0496,-0.9834,-0.0443
214300,0.0497,-0.9835,-0.0460
214322,0.0498,-0.9833,-0.0457
214365,0.0499,-0.9813,-0.0314
214400,0.0499,-0.9785,-0.0111
214418,0.0498,-0.9768,0.0021
214440,0.0497,-0.9749,0.0170
214459,0.0496,-0.9728,0.0334
214482,0.0493,-0.9683,0.0701
214507,0.0492,-0.9658,0.0896
214578,0.0486,-0.9537,0.1875
214596,0.0483,-0.9517,0.2046
214618,0.0482,-0.9498,0.2201
214640,0.0480,-0.9482,0.2335
214657,0.0479,-0.9470,0.2444
214703,0.0474,-0.9454,0.2598
214741,0.0471,-0.9464,0.2537
214763,0.0470,-0.9487,0.2350
214787,0.0470,-0.9504,0.2214
214810,0.0471,-0.9545,0.1875
214832,0.0471,-0.9567,0.1680
214856,0.0472,-0.9591,0.1473
214879,0.0476,-0.9641,0.1045
214901,0.0477,-0.9666,0.0831
214924,0.0481,-0.9713,0.0426
214946,0.0482,-0.9734,0.0239
214964,0.0483,-0.9753,0.0070
214997,0.0487,-0.9788,-0.0221
215028,0.0490,-0.9812,-0.0436
215045,0.0490,-0.9822,-0.0515
215067,0.0491,-0.9828,-0.0575
215089,0.0492,-0.9836,-0.0643
215112,0.0493,-0.9838,-0.0653
215128,0.0493,-0.9838,-0.0651
215148,0.0494,-0.9836,-0.0637
215185,0.0494,-0.9832,-0.0581
215207,0.0496,-0.9823,-0.0499
215230,0.0497,-0.9818,-0.0453
215250,0.0497,-0.9813,-0.0403
215274,0.0498,-0.9802,-0.0300
215300,0.0498,-0.9797,-0.0248
215334,0.0498,-0.9786,-0.0087
215352,0.0498,-0.9774,-0.0031
215381,0.0498,-0.9768,0.0028
215404,0.0498,-0.9753,0.0150
215424,0.0498,-0.9746,0.0214
215445,0.0497,-0.9739,0.0280
215464,0.0497,-0.9730,0.0345
215485,0.0496,-0.9714,0.0480
215508,0.0494,-0.9707,0.0547
215530,0.0494,-0.9698,0.0613
215598,0.0491,-0.9663,0.0901
215638,0.0490,-0.9653,0.0985
215660,0.0490,-0.9648,0.1018
215677,0.0490,-0.9645,0.1046
215700,0.0490,-0.9640,0.1084
215722,0.0490,-0.9639,0.1095
215739,0.0490,-0.9639,0.1100
215756,0.0490,-0.9637,0.1101
215778,0.0490,-0.9637,0.1099
215832,0.0490,-0.9642,0.1058
215854,0.0491,-0.9644,0.1045
215874,0.0491,-0.9645,0.1030
215897,0.0491,-0.9648,0.1001
215943,0.0491,-0.9652,0.0964
215974,0.0492,-0.9652,0.0955
215994,0.0492,-0.9655,0.0939
216018,0.0492,-0.9655,0.0934
216040,0.0492,-0.9655,0.0929
216063,0.0492,-0.9655,0.0925
216081,0.0492,-0.9655,0.0924
216101,0.0492,-0.9655,0.0925
216122,0.0492,-0.9655,0.0927
216145,0.0492,-0.9653,0.0931
216162,0.0492,-0.9653,0.0935
216184,0.0492,-0.9653,0.0939
216227,0.0492,-0.9652,0.0950
216278,0.0492,-0.9651,0.0961
216299,0.0491,-0.9651,0.0963
216321,0.0491,-0.9651,0.0966
216340,0.0491,-0.9651,0.0970
216359,0.0491,-0.9651,0.0972
216381,0.0491,-0.9651,0.0973
216403,0.0491,-0.9651,0.0973
216433,0.0491,-0.9651,0.0973
216456,0.0491,-0.9652,0.0973
216480,0.0491,-0.9652,0.0972
216499,0.0491,-0.9652,0.0970
216522,0.0491,-0.9653,0.0969
216554,0.0491,-0.9653,0.0967
216614,0.0492,-0.9655,0.0964
216631,0.0492,-0.9655,0.0963
216654,0.0492,-0.9655,0.0962
216676,0.0492,-0.9655,0.0961
216693,0.0492,-0.9655,0.0961
216715,0.0492,-0.9655,0.0961
216734,0.0491,-0.9655,0.0961
216758,0.0491,-0.9655,0.0961
216775,0.0491,-0.9655,0.0961
216796,0.0491,-0.9655,0.0961
216839,0.0491,-0.9655,0.0961
216880,0.0490,-0.9655,0.0962
216898,0.0490,-0.9655,0.0962
216920,0.0490,-0.9655,0.0963
216942,0.0490,-0.9655,0.0963
216959,0.0490,-0.9655,0.0963
216976,0.0490,-0.9655,0.0963
216999,0.0490,-0.9655,0.0963
217038,0.0490,-0.9655,0.0963
217060,0.0490,-0.9655,0.0963
217085,0.0490,-0.9655,0.0963
217105,0.0491,-0.9655,0.0963
217128,0.0491,-0.9655,0.0963
217172,0.0491,-0.9655,0.0962
217189,0.0491,-0.9655,0.0962
217232,0.0492,-0.9655,0.0962
217254,0.0492,-0.9655,0.0962
217279,0.0492,-0.9653,0.0962
217300,0.0492,-0.9653,0.0962
217323,0.0492,-0.9653,0.0962
217343,0.0492,-0.9653,0.0962
217365,0.0493,-0.9653,0.0962
217382,0.0493,-0.9653,0.0962
217425,0.0493,-0.9653,0.0961
217447,0.0494,-0.9653,0.0961
217481,0.0494,-0.9653,0.0961
217498,0.0494,-0.9653,0.0961
217520,0.0494,-0.9653,0.0961
217540,0.0494,-0.9653,0.0961
217557,0.0494,-0.9653,0.0959
217579,0.0494,-0.9652,0.0959
217597,0.0493,-0.9652,0.0959
217668,0.0492,-0.9653,0.0959
217689,0.0492,-0.9653,0.0959
217711,0.0491,-0.9653,0.0959
217733,0.0491,-0.9653,0.0959
217750,0.0491,-0.9653,0.0959
217781,0.0490,-0.9655,0.0959
217798,0.0490,-0.9655,0.0959
217834,0.0490,-0.9656,0.0961
217857,0.0490,-0.9656,0.0961
217881,0.0490,-0.9656,0.0961
217904,0.0490,-0.9657,0.0962
217926,0.0491,-0.9657,0.0962
217951,0.0491,-0.9657,0.0962
217973,0.0491,-0.9657,0.0962
217997,0.0492,-0.9658,0.0962
218026,0.0492,-0.9658,0.0962
218047,0.0492,-0.9658,0.0961
218086,0.0493,-0.9658,0.0959
218107,0.0493,-0.9658,0.0958
218128,0.0493,-0.9658,0.0957
218148,0.0493,-0.9658,0.0956
218166,0.0493,-0.9658,0.0956
218188,0.0493,-0.9659,0.0957
218205,0.0493,-0.9663,0.0961
218240,0.0497,-0.9680,0.0977
218262,0.0500,-0.9694,0.0990
218297,0.0535,-0.9724,0.1060
218318,0.0558,-0.9728,0.1094
218340,0.0587,-0.9728,0.1132
218362,0.0671,-0.9719,0.1224
218396,0.0787,-0.9696,0.1332
218434,0.0929,-0.9662,0.1449
218456,0.1007,-0.9642,0.1508
218481,0.1171,-0.9608,0.1621
218499,0.1252,-0.9595,0.1674
218521,0.1333,-0.9585,0.1722
218546,0.1481,-0.9579,0.1802
218565,0.1543,-0.9581,0.1832
218587,0.1597,-0.9589,0.1854
218661,0.1687,-0.9651,0.1829
218701,0.1648,-0.9679,0.1753
218724,0.1580,-0.9703,0.1643
218741,0.1538,-0.9712,0.1576
218763,0.1492,-0.9714,0.1503
218785,0.1442,-0.9712,0.1425
218802,0.1389,-0.9703,0.1342
218818,0.1334,-0.9688,0.1255
218841,0.1223,-0.9644,0.1074
218884,0.1118,-0.9594,0.0892
218907,0.1031,-0.9553,0.0712
218931,0.0999,-0.9540,0.0624
218950,0.0975,-0.9531,0.0538
218973,0.0953,-0.9530,0.0374
219004,0.0969,-0.9545,0.0222
219023,0.0990,-0.9556,0.0151
219045,0.1019,-0.9568,0.0084
219067,0.1055,-0.9580,0.0022
219100,0.1145,-0.9606,-0.0090
219120,0.1252,-0.9636,-0.0182
219144,0.1311,-0.9656,-0.0219
219164,0.1371,-0.9678,-0.0249
219187,0.1490,-0.9736,-0.0286
219204,0.1547,-0.9774,-0.0293
219228,0.1599,-0.9816,-0.0291
219251,0.1687,-0.9913,-0.0261
219286,0.1753,-1.0012,-0.0195
219321,0.1794,-1.0081,-0.0100
219343,0.1803,-1.0090,-0.0044
219366,0.1792,-1.0042,0.0083
219388,0.1770,-0.9979,0.0151
219408,0.1738,-0.9893,0.0222
219433,0.1639,-0.9661,0.0366
219455,0.1575,-0.9525,0.0436
219486,0.1422,-0.9240,0.0571
219508,0.1337,-0.9103,0.0634
219533,0.1161,-0.8866,0.0746
219555,0.1073,-0.8776,0.0795
219577,0.0988,-0.8706,0.0837
219622,0.0757,-0.8645,0.0922
219640,0.0692,-0.8676,0.0936
219711,0.0482,-0.9133,0.0900
219728,0.0465,-0.9270,0.0876
219750,0.0457,-0.9413,0.0850
219772,0.0457,-0.9558,0.0822
219789,0.0466,-0.9702,0.0792
219812,0.0509,-0.9963,0.0737
219832,0.0540,-1.0074,0.0713
219881,0.0665,-1.0294,0.0660
219927,0.0826,-1.0336,0.0638
219944,0.0885,-1.0315,0.0638
219966,0.0947,-1.0280,0.0640
219988,0.1011,-1.0233,0.0642
220005,0.1074,-1.0178,0.0647
220028,0.1196,-1.0054,0.0658
220045,0.1252,-0.9989,0.0664
220082,0.1346,-0.9863,0.0674
220098,0.1382,-0.9807,0.0679
220121,0.1409,-0.9755,0.0684
220142,0.1434,-0.9669,0.0691
220162,0.1434,-0.9634,0.0695
220185,0.1427,-0.9604,0.0697
220234,0.1373,-0.9551,0.0701
220274,0.1289,-0.9542,0.0704
220307,0.1228,-0.9546,0.0713
220326,0.1198,-0.9547,0.0719
220342,0.1168,-0.9547,0.0729
220363,0.1141,-0.9547,0.0741
220380,0.1117,-0.9546,0.0756
220403,0.1077,-0.9543,0.0791
220423,0.1061,-0.9540,0.0811
220442,0.1047,-0.9535,0.0831
220459,0.1035,-0.9530,0.0853
220481,0.1024,-0.9524,0.0875
220528,0.0981,-0.9520,0.0940
220559,0.0934,-0.9537,0.0975
220576,0.0905,-0.9551,0.0991
220598,0.0872,-0.9567,0.1005
220619,0.0797,-0.9603,0.1025
220636,0.0757,-0.9623,0.1034
220661,0.0717,-0.9642,0.1040
220684,0.0634,-0.9679,0.1050
220749,0.0485,-0.9731,0.1061
220769,0.0453,-0.9740,0.1063
220791,0.0425,-0.9745,0.1066
220814,0.0377,-0.9747,0.1072
220831,0.0359,-0.9745,0.1077
220863,0.0333,-0.9735,0.1086
220881,0.0325,-0.9729,0.1093
220929,0.0319,-0.9705,0.1112
220951,0.0322,-0.9695,0.1118
220968,0.0327,-0.9686,0.1125
220990,0.0333,-0.9678,0.1132
221013,0.0350,-0.9662,0.1141
221030,0.0360,-0.9655,0.1145
221052,0.0370,-0.9648,0.1147
221077,0.0389,-0.9639,0.1151
221107,0.0398,-0.9635,0.1150
221126,0.0415,-0.9630,0.1147
221173,0.0428,-0.9628,0.1140
221190,0.0433,-0.9628,0.1136
221213,0.0442,-0.9628,0.1128
221235,0.0444,-0.9629,0.1123
221255,0.0446,-0.9630,0.1118
221280,0.0447,-0.9633,0.1110
221302,0.0447,-0.9635,0.1106
221332,0.0444,-0.9637,0.1100
221354,0.0442,-0.9639,0.1097
221377,0.0438,-0.9642,0.1093
221400,0.0436,-0.9642,0.1091
221423,0.0432,-0.9645,0.1090
221440,0.0430,-0.9646,0.1090
221472,0.0426,-0.9646,0.1090
221489,0.0424,-0.9646,0.1090
221526,0.0421,-0.9647,0.1091
221548,0.0421,-0.9646,0.1093
221573,0.0420,-0.9646,0.1095
221595,0.0420,-0.9646,0.1095
221617,0.0420,-0.9645,0.1096
221642,0.0420,-0.9645,0.1099
221664,0.0420,-0.9644,0.1099
221690,0.0421,-0.9642,0.1101
221755,0.0424,-0.9641,0.1102
221790,0.0425,-0.9640,0.1102
221807,0.0426,-0.9640,0.1104
221829,0.0426,-0.9640,0.1104
221852,0.0427,-0.9640,0.1102
221869,0.0427,-0.9639,0.1102
221892,0.0427,-0.9639,0.1102
221914,0.0427,-0.9639,0.1102
221944,0.0427,-0.9639,0.1101
221967,0.0427,-0.9639,0.1101
221991,0.0427,-0.9639,0.1101
222013,0.0427,-0.9639,0.1102
222036,0.0427,-0.9639,0.1104
222053,0.0427,-0.9639,0.1105
222090,0.0426,-0.9640,0.1106
222108,0.0426,-0.9640,0.1106
222139,0.0426,-0.9640,0.1106
222158,0.0425,-0.9640,0.1105
222183,0.0425,-0.9641,0.1104
222205,0.0425,-0.9641,0.1102
222227,0.0425,-0.9641,0.1101
222245,0.0424,-0.9642,0.1099
222267,0.0424,-0.9642,0.1097
222289,0.0424,-0.9642,0.1096
222339,0.0424,-0.9642,0.1094
222362,0.0424,-0.9642,0.1093
222396,0.0425,-0.9642,0.1091
222418,0.0425,-0.9641,0.1091
222436,0.0425,-0.9641,0.1090
222459,0.0425,-0.9641,0.1090
222481,0.0425,-0.9641,0.1090
222501,0.0425,-0.9640,0.1091
222518,0.0425,-0.9640,0.1091
222541,0.0426,-0.9639,0.1094
222585,0.0426,-0.9639,0.1097
222608,0.0426,-0.9637,0.1104
222632,0.0425,-0.9636,0.1108
222654,0.0425,-0.9636,0.1116
222700,0.0424,-0.9631,0.1147
222724,0.0421,-0.9626,0.1178
222746,0.0421,-0.9624,0.1196
222819,0.0420,-0.9607,0.1305
222837,0.0419,-0.9592,0.1392
222859,0.0419,-0.9584,0.1447
222881,0.0417,-0.9575,0.1508
222897,0.0416,-0.9564,0.1577
222920,0.0414,-0.9542,0.1737
222938,0.0411,-0.9531,0.1826
222983,0.0408,-0.9510,0.2020
223014,0.0404,-0.9490,0.2223
223031,0.0403,-0.9481,0.2324
223054,0.0402,-0.9464,0.2518
223072,0.0402,-0.9458,0.2609
223092,0.0402,-0.9452,0.2692
223112,0.0402,-0.9447,0.2766
223137,0.0403,-0.9440,0.2889
223174,0.0404,-0.9435,0.2970
223193,0.0404,-0.9435,0.2991
223218,0.0406,-0.9438,0.2985
223240,0.0409,-0.9443,0.2953
223262,0.0410,-0.9451,0.2903
223279,0.0411,-0.9460,0.2830
223321,0.0414,-0.9500,0.2480
223338,0.0414,-0.9517,0.2324
223369,0.0414,-0.9553,0.1962
223391,0.0414,-0.9573,0.1763
223410,0.0415,-0.9595,0.1555
223434,0.0419,-0.9637,0.1133
223456,0.0421,-0.9659,0.0925
223473,0.0424,-0.9680,0.0723
223496,0.0428,-0.9719,0.0349
223518,0.0431,-0.9738,0.0182
223535,0.0433,-0.9753,0.0032
223552,0.0436,-0.9768,-0.0101
223574,0.0438,-0.9781,-0.0212
223642,0.0444,-0.9808,-0.0426
223667,0.0447,-0.9806,-0.0378
223689,0.0448,-0.9800,-0.0317
223709,0.0449,-0.9780,-0.0125
223732,0.0449,-0.9767,0.0002
223750,0.0450,-0.9750,0.0146
223772,0.0450,-0.9733,0.0305
223848,0.0449,-0.9630,0.1196
223865,0.0449,-0.9611,0.1373
223887,0.0448,-0.9591,0.1544
223925,0.0446,-0.9541,0.1997
223951,0.0446,-0.9528,0.2123
223969,0.0444,-0.9517,0.2233
223992,0.0443,-0.9501,0.2396
224022,0.0442,-0.9496,0.2478
224044,0.0441,-0.9497,0.2484
224068,0.0438,-0.9500,0.2467
224090,0.0435,-0.9512,0.2357
224110,0.0433,-0.9521,0.2268
224134,0.0432,-0.9532,0.2157
224156,0.0432,-0.9558,0.1879
224178,0.0432,-0.9573,0.1718
224223,0.0436,-0.9623,0.1183
224260,0.0441,-0.9659,0.0814
224277,0.0444,-0.9678,0.0636
224299,0.0448,-0.9695,0.0465
224322,0.0455,-0.9728,0.0151
224349,0.0459,-0.9742,0.0012
224371,0.0464,-0.9768,-0.0226
224417,0.0466,-0.9797,-0.0471
224439,0.0465,-0.9805,-0.0521
224456,0.0464,-0.9811,-0.0555
224478,0.0461,-0.9814,-0.0571
224501,0.0455,-0.9814,-0.0543
224518,0.0453,-0.9811,-0.0496
224556,0.0444,-0.9795,-0.0327
224574,0.0439,-0.9784,-0.0206
224604,0.0431,-0.9752,0.0111
224626,0.0426,-0.9734,0.0303
224651,0.0417,-0.9690,0.0743
224673,0.0414,-0.9667,0.0984
224696,0.0408,-0.9618,0.1484
224713,0.0404,-0.9592,0.1735
224735,0.0402,-0.9567,0.1980
224756,0.0400,-0.9542,0.2214
224825,0.0396,-0.9458,0.2963
224879,0.0393,-0.9421,0.3236
224901,0.0393,-0.9423,0.3213
224918,0.0392,-0.9427,0.3151
224939,0.0391,-0.9437,0.3053
224961,0.0388,-0.9467,0.2756
225005,0.0387,-0.9508,0.2349
225028,0.0386,-0.9558,0.1866
225045,0.0385,-0.9584,0.1609
225067,0.0385,-0.9612,0.1349
225088,0.0385,-0.9639,0.1089
225112,0.0386,-0.9691,0.0593
225133,0.0387,-0.9716,0.0364
225159,0.0388,-0.9760,-0.0040
225177,0.0389,-0.9778,-0.0209
225199,0.0391,-0.9795,-0.0353
225218,0.0392,-0.9810,-0.0469
225252,0.0394,-0.9828,-0.0612
225273,0.0397,-0.9833,-0.0623
225290,0.0399,-0.9829,-0.0577
225312,0.0400,-0.9822,-0.0498
225334,0.0403,-0.9811,-0.0386
225351,0.0405,-0.9796,-0.0242
225374,0.0409,-0.9757,0.0127
225391,0.0410,-0.9734,0.0347
225436,0.0414,-0.9658,0.1077
225474,0.0415,-0.9612,0.1559
225491,0.0415,-0.9591,0.1777
225513,0.0414,-0.9574,0.1970
225536,0.0410,-0.9548,0.2260
225553,0.0408,-0.9541,0.2349
225575,0.0404,-0.9539,0.2396
225593,0.0400,-0.9539,0.2404
225631,0.0393,-0.9550,0.2300
225654,0.0387,-0.9574,0.2059
225671,0.0383,-0.9590,0.1897
225689,0.0381,-0.9607,0.1713
225711,0.0378,-0.9626,0.1514
225736,0.0375,-0.9667,0.1086
225781,0.0375,-0.9707,0.0446
225855,0.0383,-0.9792,-0.0259
225872,0.0387,-0.9806,-0.0392
225894,0.0389,-0.9816,-0.0508
225917,0.0397,-0.9832,-0.0680
225936,0.0400,-0.9836,-0.0739
225956,0.0403,-0.9841,-0.0779
225978,0.0406,-0.9843,-0.0803
226030,0.0419,-0.9839,-0.0762
226075,0.0424,-0.9830,-0.0681
226092,0.0425,-0.9825,-0.0634
226115,0.0427,-0.9816,-0.0527
226137,0.0428,-0.9811,-0.0472
226154,0.0430,-0.9806,-0.0419
226172,0.0430,-0.9801,-0.0366
226197,0.0431,-0.9794,-0.0270
226234,0.0431,-0.9786,-0.0183
226256,0.0431,-0.9783,-0.0142
226279,0.0432,-0.9777,-0.0057
226301,0.0432,-0.9772,-0.0012
226323,0.0433,-0.9768,0.0035
226340,0.0433,-0.9763,0.0087
226389,0.0435,-0.9744,0.0265
226431,0.0435,-0.9718,0.0477
226446,0.0435,-0.9709,0.0553
226470,0.0435,-0.9700,0.0630
226493,0.0435,-0.9681,0.0780
226515,0.0436,-0.9673,0.0851
226532,0.0436,-0.9664,0.0918
226554,0.0436,-0.9657,0.0980
226577,0.0436,-0.9644,0.1085
226594,0.0436,-0.9637,0.1128
226615,0.0436,-0.9634,0.1163
226638,0.0436,-0.9628,0.1212
226675,0.0437,-0.9624,0.1234
226710,0.0437,-0.9624,0.1233
226727,0.0437,-0.9625,0.1227
226749,0.0437,-0.9626,0.1216
226772,0.0437,-0.9630,0.1189
226790,0.0437,-0.9631,0.1172
226808,0.0437,-0.9634,0.1155
226830,0.0437,-0.9635,0.1136
226897,0.0438,-0.9642,0.1072
226914,0.0438,-0.9645,0.1058
226937,0.0438,-0.9647,0.1036
226957,0.0438,-0.9647,0.1028
226983,0.0438,-0.9648,0.1016
227014,0.0438,-0.9650,0.1013
227061,0.0438,-0.9650,0.1012
227084,0.0438,-0.9648,0.1016
227101,0.0438,-0.9648,0.1019
227123,0.0438,-0.9648,0.1023
227145,0.0438,-0.9647,0.1028
227162,0.0438,-0.9647,0.1033
227185,0.0437,-0.9646,0.1041
227207,0.0437,-0.9646,0.1046
227247,0.0437,-0.9645,0.1058
227269,0.0437,-0.9644,0.1062
227286,0.0437,-0.9644,0.1064
227322,0.0437,-0.9642,0.1069
227347,0.0438,-0.9642,0.1072
227369,0.0438,-0.9642,0.1073
227391,0.0439,-0.9642,0.1074
227408,0.0441,-0.9644,0.1075
227429,0.0446,-0.9648,0.1079
227451,0.0450,-0.9653,0.1080
227495,0.0468,-0.9681,0.1084
227517,0.0476,-0.9692,0.1083
227541,0.0486,-0.9703,0.1083
227564,0.0513,-0.9717,0.1080
227586,0.0532,-0.9719,0.1082
227620,0.0581,-0.9713,0.1088
227653,0.0648,-0.9695,0.1099
227676,0.0732,-0.9669,0.1113
227693,0.0781,-0.9655,0.1121
227715,0.0834,-0.9639,0.1127
227737,0.0890,-0.9623,0.1133
227754,0.0947,-0.9608,0.1136
227777,0.1063,-0.9580,0.1141
227799,0.1117,-0.9568,0.1141
227820,0.1168,-0.9558,0.1141
227839,0.1255,-0.9541,0.1138
227861,0.1288,-0.9536,0.1134
227934,0.1311,-0.9536,0.1115
227975,0.1136,-0.9554,0.1094
227995,0.1030,-0.9563,0.1086
228017,0.0901,-0.9573,0.1077
228034,0.0750,-0.9583,0.1066
228072,0.0179,-0.9613,0.1021
228094,-0.0032,-0.9622,0.1002
228121,-0.0446,-0.9637,0.0969
228143,-0.0635,-0.9645,0.0955
228165,-0.0806,-0.9652,0.0942
228182,-0.0955,-0.9659,0.0933
228205,-0.1169,-0.9673,0.0918
228227,-0.1234,-0.9679,0.0916
228281,-0.1252,-0.9694,0.0923
228304,-0.1138,-0.9700,0.0940
228325,-0.1049,-0.9701,0.0951
228347,-0.0945,-0.9701,0.0966
228370,-0.0702,-0.9698,0.0997
228387,-0.0571,-0.9696,0.1016
228405,-0.0437,-0.9694,0.1034
228423,-0.0304,-0.9690,0.1053
228464,0.0065,-0.9675,0.1112
228484,0.0171,-0.9670,0.1129
228501,0.0266,-0.9666,0.1146
228523,0.0350,-0.9659,0.1162
228578,0.0529,-0.9645,0.1206
228596,0.0588,-0.9637,0.1211
228618,0.0602,-0.9634,0.1215
228642,0.0605,-0.9631,0.1216
228673,0.0591,-0.9628,0.1215
228696,0.0552,-0.9626,0.1207
228713,0.0525,-0.9625,0.1202
228735,0.0497,-0.9625,0.1196
228757,0.0468,-0.9626,0.1190
228774,0.0437,-0.9626,0.1183
228797,0.0378,-0.9629,0.1171
228819,0.0352,-0.9630,0.1163
228841,0.0326,-0.9631,0.1158
228878,0.0267,-0.9635,0.1144
228951,0.0231,-0.9640,0.1132
228967,0.0229,-0.9641,0.1130
228989,0.0229,-0.9642,0.1129
229012,0.0236,-0.9644,0.1129
229029,0.0240,-0.9644,0.1129
229053,0.0248,-0.9644,0.1130
229076,0.0264,-0.9644,0.1133
229113,0.0280,-0.9644,0.1138
229135,0.0288,-0.9644,0.1140
229168,0.0303,-0.9644,0.1145
229189,0.0315,-0.9642,0.1152
229211,0.0320,-0.9641,0.1157
229233,0.0323,-0.9640,0.1162
229250,0.0327,-0.9640,0.1168
229267,0.0328,-0.9639,0.1176
229290,0.0331,-0.9635,0.1191
229330,0.0331,-0.9633,0.1206
229350,0.0330,-0.9631,0.1211
229375,0.0326,-0.9629,0.1217
229397,0.0323,-0.9629,0.1218
229420,0.0320,-0.9628,0.1224
229437,0.0317,-0.9626,0.1233
229480,0.0314,-0.9622,0.1266
229521,0.0310,-0.9608,0.1370
229543,0.0309,-0.9602,0.1422
229568,0.0308,-0.9587,0.1552
229590,0.0309,-0.9579,0.1628
229612,0.0309,-0.9569,0.1713
229629,0.0310,-0.9559,0.1803
229652,0.0312,-0.9539,0.1997
229674,0.0314,-0.9528,0.2098
229717,0.0319,-0.9495,0.2400
229739,0.0321,-0.9485,0.2494
229783,0.0326,-0.9458,0.2736
229805,0.0327,-0.9451,0.2797
229822,0.0327,-0.9445,0.2847
229844,0.0327,-0.9440,0.2883
229864,0.0326,-0.9434,0.2915
229888,0.0325,-0.9434,0.2908
229906,0.0322,-0.9436,0.2885
229929,0.0319,-0.9447,0.2786
230001,0.0306,-0.9496,0.2378
230024,0.0303,-0.9513,0.2235
230047,0.0295,-0.9553,0.1913
230085,0.0288,-0.9597,0.1554
230104,0.0286,-0.9622,0.1367
230127,0.0282,-0.9668,0.0991
230149,0.0280,-0.9690,0.0807
230179,0.0277,-0.9730,0.0457
230201,0.0276,-0.9747,0.0295
230226,0.0276,-0.9777,0.0009
230244,0.0276,-0.9789,-0.0115
230266,0.0276,-0.9800,-0.0223
230293,0.0278,-0.9817,-0.0397
230310,0.0278,-0.9823,-0.0460
230332,0.0280,-0.9828,-0.0508
230377,0.0284,-0.9832,-0.0543
230424,0.0288,-0.9813,-0.0396
230443,0.0291,-0.9802,-0.0304
230465,0.0292,-0.9788,-0.0192
230488,0.0295,-0.9753,0.0092
230505,0.0298,-0.9733,0.0258
230528,0.0299,-0.9709,0.0437
230550,0.0302,-0.9686,0.0626
230580,0.0304,-0.9637,0.1022
230603,0.0308,-0.9590,0.1418
230623,0.0309,-0.9567,0.1610
230645,0.0310,-0.9545,0.1793
230667,0.0311,-0.9524,0.1967
230685,0.0315,-0.9487,0.2273
230719,0.0317,-0.9459,0.2520
230737,0.0319,-0.9448,0.2617
230767,0.0321,-0.9434,0.2759
230789,0.0321,-0.9430,0.2802
230813,0.0321,-0.9429,0.2825
230836,0.0320,-0.9432,0.2819
230858,0.0319,-0.9438,0.2788
230875,0.0317,-0.9446,0.2740
230897,0.0316,-0.9457,0.2675
230917,0.0311,-0.9485,0.2493
230938,0.0308,-0.9502,0.2378
230998,0.0292,-0.9585,0.1782
231030,0.0284,-0.9630,0.1429
231048,0.0280,-0.9652,0.1246
231066,0.0276,-0.9674,0.1062
231088,0.0272,-0.9695,0.0879
231113,0.0266,-0.9733,0.0527
231137,0.0264,-0.9750,0.0363
231159,0.0262,-0.9766,0.0209
231200,0.0259,-0.9802,-0.0177
231222,0.0259,-0.9811,-0.0275
231239,0.0259,-0.9818,-0.0355
231262,0.0260,-0.9825,-0.0455
231284,0.0261,-0.9827,-0.0475
231301,0.0262,-0.9825,-0.0471
231332,0.0266,-0.9816,-0.0398
231350,0.0269,-0.9807,-0.0330
231383,0.0273,-0.9784,-0.0131
231405,0.0276,-0.9769,-0.0004
231427,0.0282,-0.9735,0.0297
231449,0.0284,-0.9717,0.0464
231471,0.0287,-0.9696,0.0641
231488,0.0291,-0.9675,0.0823
231509,0.0295,-0.9634,0.1193
231528,0.0298,-0.9613,0.1375
231545,0.0299,-0.9594,0.1552
231576,0.0303,-0.9554,0.1879
231598,0.0304,-0.9537,0.2026
231642,0.0304,-0.9493,0.2389
231664,0.0303,-0.9482,0.2480
231681,0.0303,-0.9474,0.2554
231703,0.0300,-0.9468,0.2609
231726,0.0298,-0.9467,0.2657
231743,0.0295,-0.9470,0.2648
231760,0.0293,-0.9478,0.2614
231782,0.0291,-0.9487,0.2555
231827,0.0277,-0.9534,0.2234
231849,0.0273,-0.9552,0.2085
231874,0.0265,-0.9594,0.1740
231896,0.0261,-0.9615,0.1549
231946,0.0251,-0.9680,0.0956
232012,0.0249,-0.9760,0.0228
232032,0.0249,-0.9777,0.0074
232055,0.0253,-0.9805,-0.0188
232077,0.0255,-0.9816,-0.0297
232094,0.0259,-0.9825,-0.0389
232117,0.0264,-0.9839,-0.0529
232139,0.0267,-0.9844,-0.0576
232158,0.0270,-0.9846,-0.0609
232180,0.0273,-0.9847,-0.0629
232203,0.0278,-0.9845,-0.0625
232234,0.0283,-0.9835,-0.0565
232275,0.0288,-0.9818,-0.0446
232292,0.0291,-0.9807,-0.0363
232315,0.0294,-0.9779,-0.0154
232337,0.0297,-0.9763,-0.0028
232359,0.0299,-0.9747,0.0110
232382,0.0303,-0.9711,0.0420
232404,0.0305,-0.9692,0.0590
232448,0.0310,-0.9635,0.1130
232468,0.0311,-0.9615,0.1316
232488,0.0312,-0.9597,0.1499
232509,0.0314,-0.9579,0.1678
232531,0.0316,-0.9546,0.2015
232571,0.0320,-0.9517,0.2311
232589,0.0322,-0.9503,0.2439
232627,0.0326,-0.9469,0.2727
232649,0.0327,-0.9459,0.2789
232673,0.0327,-0.9453,0.2832
232696,0.0327,-0.9446,0.2860
232718,0.0326,-0.9446,0.2843
232735,0.0325,-0.9449,0.2804
232758,0.0320,-0.9464,0.2656
232785,0.0319,-0.9475,0.2549
232826,0.0310,-0.9523,0.2106
232848,0.0306,-0.9542,0.1925
232879,0.0300,-0.9585,0.1531
232896,0.0297,-0.9608,0.1324
232918,0.0293,-0.9631,0.1117
232941,0.0286,-0.9678,0.0710
232958,0.0283,-0.9701,0.0518
232977,0.0281,-0.9724,0.0334
232995,0.0278,-0.9745,0.0165
233060,0.0272,-0.9814,-0.0358
233083,0.0272,-0.9827,-0.0447
233106,0.0273,-0.9846,-0.0575
233128,0.0275,-0.9854,-0.0615
233145,0.0276,-0.9860,-0.0643
233187,0.0282,-0.9869,-0.0663
233226,0.0287,-0.9868,-0.0631
233244,0.0288,-0.9865,-0.0603
233269,0.0293,-0.9852,-0.0520
233291,0.0294,-0.9844,-0.0461
233313,0.0297,-0.9833,-0.0389
233330,0.0299,-0.9819,-0.0302
233353,0.0303,-0.9789,-0.0073
233375,0.0305,-0.9769,0.0068
233392,0.0308,-0.9750,0.0227
233409,0.0310,-0.9728,0.0402
233431,0.0312,-0.9706,0.0588
233478,0.0320,-0.9635,0.1198
233513,0.0323,-0.9590,0.1804
233529,0.0326,-0.9569,0.1804
233550,0.0331,-0.9531,0.2166
233572,0.0332,-0.9515,0.2325
233597,0.0336,-0.9487,0.2598
233615,0.0338,-0.9476,0.2709
233637,0.0339,-0.9467,0.2800
233674,0.0341,-0.9452,0.2927
233697,0.0341,-0.9445,0.2976
233717,0.0341,-0.9445,0.2969
233739,0.0339,-0.9447,0.2939
233762,0.0337,-0.9460,0.2812
233779,0.0336,-0.9471,0.2714
233810,0.0331,-0.9500,0.2450
233832,0.0328,-0.9518,0.2289
233863,0.0323,-0.9557,0.1918
233882,0.0321,-0.9578,0.1715
233904,0.0319,-0.9600,0.1504
233924,0.0315,-0.9623,0.1289
233946,0.0310,-0.9668,0.0863
233967,0.0309,-0.9690,0.0659
233989,0.0306,-0.9711,0.0464
234009,0.0304,-0.9750,0.0111
234027,0.0304,-0.9767,-0.0043
234086,0.0304,-0.9810,-0.0399
234121,0.0306,-0.9829,-0.0549
234138,0.0308,-0.9836,-0.0599
234157,0.0312,-0.9845,-0.0656
234179,0.0315,-0.9847,-0.0664
234196,0.0317,-0.9849,-0.0660
234218,0.0320,-0.9847,-0.0647
234234,0.0323,-0.9846,-0.0623
234279,0.0333,-0.9830,-0.0485
234299,0.0336,-0.9823,-0.0415
234322,0.0343,-0.9801,-0.0236
234344,0.0347,-0.9788,-0.0125
234365,0.0350,-0.9772,0.0002
234390,0.0359,-0.9735,0.0299
234421,0.0366,-0.9694,0.0645
234438,0.0370,-0.9672,0.0833
234485,0.0380,-0.9607,0.1418
234502,0.0382,-0.9585,0.1613
234527,0.0385,-0.9563,0.1802
234549,0.0387,-0.9541,0.1981
234572,0.0393,-0.9502,0.2302
234591,0.0397,-0.9485,0.2439
234611,0.0399,-0.9470,0.2556
234635,0.0402,-0.9447,0.2720
234672,0.0399,-0.9437,0.2776
234692,0.0397,-0.9438,0.2758
234723,0.0389,-0.9452,0.2632
234740,0.0385,-0.9465,0.2527
234762,0.0378,-0.9482,0.2394
234785,0.0367,-0.9525,0.2063
234802,0.0361,-0.9550,0.1871
234824,0.0355,-0.9576,0.1667
234844,0.0349,-0.9604,0.1454
234883,0.0337,-0.9689,0.0803
234905,0.0334,-0.9714,0.0594
234922,0.0332,-0.9740,0.0396
234940,0.0330,-0.9764,0.0208
234963,0.0328,-0.9805,-0.0123
234985,0.0328,-0.9821,-0.0262
235028,0.0330,-0.9854,-0.0574
235047,0.0332,-0.9858,-0.0642
235106,0.0337,-0.9863,-0.0748
235122,0.0338,-0.9862,-0.0756
235144,0.0342,-0.9855,-0.0735
235166,0.0343,-0.9850,-0.0710
235189,0.0344,-0.9844,-0.0679
235212,0.0347,-0.9832,-0.0596
235234,0.0348,-0.9825,-0.0548
235275,0.0350,-0.9807,-0.0391
235297,0.0352,-0.9801,-0.0337
235329,0.0353,-0.9790,-0.0229
235346,0.0353,-0.9785,-0.0173
235368,0.0354,-0.9780,-0.0117
235386,0.0354,-0.9774,-0.0059
235403,0.0355,-0.9768,0.0002
235426,0.0356,-0.9756,0.0131
235448,0.0358,-0.9749,0.0199
235488,0.0361,-0.9727,0.0414
235511,0.0363,-0.9718,0.0487
235533,0.0364,-0.9709,0.0560
235556,0.0366,-0.9694,0.0702
235578,0.0367,-0.9686,0.0770
235597,0.0369,-0.9679,0.0834
235635,0.0370,-0.9664,0.0947
235683,0.0374,-0.9648,0.1077
235704,0.0375,-0.9642,0.1133
235720,0.0375,-0.9639,0.1151
235740,0.0375,-0.9637,0.1163
235762,0.0376,-0.9636,0.1171
235787,0.0376,-0.9635,0.1171
235809,0.0376,-0.9636,0.1165
235831,0.0376,-0.9636,0.1155
235848,0.0376,-0.9637,0.1141
235869,0.0375,-0.9641,0.1110
235891,0.0375,-0.9644,0.1091
235963,0.0374,-0.9652,0.1021
235978,0.0374,-0.9655,0.1005
236000,0.0374,-0.9658,0.0978
236019,0.0374,-0.9659,0.0967
236041,0.0374,-0.9661,0.0958
236061,0.0374,-0.9662,0.0952
236080,0.0372,-0.9662,0.0947
236153,0.0374,-0.9663,0.0950
236170,0.0374,-0.9662,0.0953
236192,0.0374,-0.9662,0.0958
236238,0.0374,-0.9661,0.0975
236253,0.0374,-0.9659,0.0981
236277,0.0374,-0.9659,0.0988
236296,0.0374,-0.9657,0.0999
236345,0.0374,-0.9656,0.1011
236366,0.0374,-0.9656,0.1013
236390,0.0374,-0.9655,0.1016
236413,0.0374,-0.9653,0.1019
236437,0.0374,-0.9653,0.1019
236460,0.0374,-0.9653,0.1021
236484,0.0374,-0.9653,0.1019
236502,0.0374,-0.9653,0.1019
236535,0.0374,-0.9653,0.1017
236580,0.0374,-0.9653,0.1013
236597,0.0374,-0.9653,0.1012
236619,0.0374,-0.9653,0.1011
236642,0.0372,-0.9653,0.1007
236662,0.0372,-0.9653,0.1007
236686,0.0372,-0.9653,0.1006
236709,0.0372,-0.9653,0.1003
236739,0.0372,-0.9653,0.1003
236760,0.0371,-0.9653,0.1002
236780,0.0371,-0.9653,0.1002
236802,0.0371,-0.9653,0.1002
236825,0.0371,-0.9653,0.1002
236842,0.0371,-0.9652,0.1002
236873,0.0371,-0.9653,0.1003
236890,0.0371,-0.9653,0.1003
236927,0.0371,-0.9653,0.1003
236949,0.0371,-0.9653,0.1005
236974,0.0371,-0.9653,0.1005
236996,0.0371,-0.9653,0.1006
237019,0.0371,-0.9655,0.1006
237036,0.0371,-0.9655,0.1006
237055,0.0371,-0.9655,0.1006
237077,0.0371,-0.9655,0.1006
237095,0.0371,-0.9655,0.1006
237154,0.0372,-0.9656,0.1006
237189,0.0372,-0.9656,0.1005
237209,0.0372,-0.9656,0.1005
237231,0.0372,-0.9656,0.1005
237254,0.0372,-0.9656,0.1005
237270,0.0372,-0.9656,0.1005
237291,0.0372,-0.9656,0.1005
237310,0.0372,-0.9656,0.1005
237348,0.0372,-0.9655,0.1005
237369,0.0372,-0.9655,0.1005
237391,0.0372,-0.9655,0.1005
237415,0.0372,-0.9653,0.1005
237437,0.0372,-0.9653,0.1005
237454,0.0372,-0.9653,0.1005
237492,0.0372,-0.9653,0.1006
237509,0.0372,-0.9652,0.1007
237540,0.0372,-0.9651,0.1013
237559,0.0372,-0.9651,0.1017
237584,0.0372,-0.9648,0.1029
237606,0.0372,-0.9647,0.1035
237629,0.0372,-0.9645,0.1055
237646,0.0372,-0.9644,0.1068
237664,0.0374,-0.9641,0.1086
237686,0.0374,-0.9639,0.1110
237736,0.0376,-0.9626,0.1223
237758,0.0377,-0.9622,0.1277
237799,0.0382,-0.9600,0.1492
237821,0.0383,-0.9590,0.1581
237838,0.0385,-0.9580,0.1677
237861,0.0388,-0.9558,0.1885
237883,0.0391,-0.9546,0.1995
237900,0.0392,-0.9534,0.2103
237917,0.0393,-0.9521,0.2212
237939,0.0394,-0.9510,0.2316
237984,0.0397,-0.9478,0.2592
238007,0.0398,-0.9462,0.2726
238031,0.0398,-0.9456,0.2773
238053,0.0398,-0.9449,0.2806
238101,0.0394,-0.9445,0.2804
238122,0.0389,-0.9452,0.2710
238144,0.0386,-0.9459,0.2632
238166,0.0382,-0.9469,0.2535
238225,0.0365,-0.9532,0.1974
238242,0.0361,-0.9553,0.1799
238264,0.0356,-0.9575,0.1617
238287,0.0348,-0.9622,0.1239
238309,0.0344,-0.9645,0.1049
238331,0.0342,-0.9668,0.0861
238354,0.0336,-0.9713,0.0502
238392,0.0331,-0.9753,0.0181
238423,0.0327,-0.9788,-0.0093
238440,0.0326,-0.9802,-0.0208
238462,0.0325,-0.9814,-0.0309
238485,0.0322,-0.9833,-0.0466
238512,0.0322,-0.9839,-0.0522
238530,0.0321,-0.9844,-0.0565
238549,0.0321,-0.9847,-0.0613
238588,0.0321,-0.9846,-0.0613
238608,0.0321,-0.9844,-0.0597
238633,0.0322,-0.9834,-0.0529
238655,0.0323,-0.9827,-0.0475
238677,0.0325,-0.9818,-0.0408
238694,0.0326,-0.9808,-0.0326
238725,0.0330,-0.9783,-0.0118
238742,0.0331,-0.9768,0.0007
238783,0.0338,-0.9713,0.0469
238804,0.0342,-0.9692,0.0648
238829,0.0347,-0.9648,0.1033
238851,0.0350,-0.9625,0.1235
238873,0.0353,-0.9603,0.1442
238890,0.0356,-0.9580,0.1649
238913,0.0364,-0.9534,0.2056
238931,0.0367,-0.9513,0.2251
238970,0.0372,-0.9474,0.2612
238993,0.0378,-0.9442,0.2921
239034,0.0383,-0.9415,0.3159
239051,0.0386,-0.9403,0.3250
239073,0.0387,-0.9392,0.3317
239096,0.0389,-0.9376,0.3383
239118,0.0388,-0.9373,0.3378
239147,0.0386,-0.9374,0.3287
239221,0.0369,-0.9421,0.2786
239238,0.0364,-0.9443,0.2601
239261,0.0353,-0.9495,0.2179
239283,0.0348,-0.9524,0.1948
239300,0.0342,-0.9553,0.1709
239338,0.0326,-0.9647,0.0984
239385,0.0317,-0.9707,0.0527
239401,0.0312,-0.9735,0.0317
239424,0.0306,-0.9783,-0.0055
239446,0.0304,-0.9803,-0.0214
239466,0.0302,-0.9822,-0.0352
239491,0.0299,-0.9851,-0.0566
239513,0.0298,-0.9861,-0.0643
239536,0.0298,-0.9874,-0.0739
239575,0.0298,-0.9878,-0.0764
239597,0.0298,-0.9877,-0.0754
239642,0.0302,-0.9865,-0.0651
239664,0.0303,-0.9858,-0.0593
239680,0.0304,-0.9850,-0.0524
239703,0.0309,-0.9827,-0.0345
239722,0.0311,-0.9813,-0.0236
239747,0.0314,-0.9796,-0.0112
239764,0.0317,-0.9779,0.0027
239787,0.0325,-0.9738,0.0347
239834,0.0336,-0.9666,0.0918
239851,0.0339,-0.9640,0.1125
239875,0.0343,-0.9613,0.1338
239898,0.0348,-0.9561,0.1764
239946,0.0350,-0.9512,0.2172
239966,0.0352,-0.9471,0.2528
239988,0.0352,-0.9454,0.2678
240010,0.0350,-0.9441,0.2803
240041,0.0349,-0.9426,0.2961
240064,0.0345,-0.9426,0.2982
240082,0.0343,-0.9432,0.2937
240104,0.0341,-0.9442,0.2856
240127,0.0338,-0.9457,0.2742
240148,0.0331,-0.9495,0.2423
240176,0.0327,-0.9519,0.2225
240199,0.0320,-0.9572,0.1779
240259,0.0309,-0.9674,0.0818
240298,0.0300,-0.9719,0.0376
240314,0.0298,-0.9740,0.0176
240335,0.0297,-0.9760,-0.0005
240355,0.0294,-0.9778,-0.0167
240400,0.0293,-0.9822,-0.0532
240420,0.0293,-0.9833,-0.0614
240436,0.0294,-0.9841,-0.0675
240458,0.0297,-0.9855,-0.0747
240480,0.0298,-0.9858,-0.0760
240504,0.0299,-0.9861,-0.0762
240522,0.0300,-0.9862,-0.0751
240538,0.0300,-0.9862,-0.0731
240561,0.0303,-0.9860,-0.0675
240600,0.0304,-0.9854,-0.0603
240618,0.0304,-0.9851,-0.0565
240662,0.0306,-0.9840,-0.0457
240682,0.0306,-0.9835,-0.0425
240705,0.0308,-0.9828,-0.0363
240728,0.0308,-0.9823,-0.0330
240750,0.0309,-0.9818,-0.0297
240771,0.0310,-0.9806,-0.0217
240793,0.0310,-0.9800,-0.0172
240810,0.0311,-0.9791,-0.0120
240855,0.0316,-0.9766,0.0067
240892,0.0320,-0.9746,0.0217
240912,0.0322,-0.9735,0.0297
240935,0.0326,-0.9716,0.0463
240957,0.0327,-0.9705,0.0544
240974,0.0330,-0.9696,0.0626
240996,0.0331,-0.9686,0.0703
241013,0.0333,-0.9678,0.0778
241052,0.0337,-0.9657,0.0963
241074,0.0338,-0.9652,0.1011
241098,0.0339,-0.9647,0.1051
241121,0.0341,-0.9642,0.1108
241141,0.0341,-0.9640,0.1125
241158,0.0342,-0.9640,0.1135
241197,0.0342,-0.9640,0.1129
241219,0.0342,-0.9642,0.1118
241279,0.0341,-0.9650,0.1064
241297,0.0339,-0.9655,0.1022
241316,0.0339,-0.9657,0.1000
241337,0.0338,-0.9659,0.0980
241359,0.0338,-0.9661,0.0961
241380,0.0337,-0.9664,0.0927
241400,0.0337,-0.9666,0.0913
241418,0.0337,-0.9667,0.0902
241459,0.0336,-0.9669,0.0885
241501,0.0336,-0.9669,0.0876
241518,0.0336,-0.9669,0.0878
241540,0.0336,-0.9669,0.0879
241563,0.0336,-0.9668,0.0887
241580,0.0336,-0.9668,0.0892
241598,0.0336,-0.9667,0.0898
241622,0.0336,-0.9667,0.0903
241665,0.0334,-0.9666,0.0923
241684,0.0334,-0.9666,0.0928
241707,0.0334,-0.9664,0.0933
241730,0.0334,-0.9664,0.0942
241752,0.0333,-0.9664,0.0946
241799,0.0333,-0.9664,0.0953
241824,0.0334,-0.9664,0.0955
241861,0.0334,-0.9664,0.0955
241882,0.0336,-0.9664,0.0953
241907,0.0337,-0.9666,0.0951
241929,0.0337,-0.9666,0.0950
241951,0.0337,-0.9666,0.0947
241970,0.0338,-0.9666,0.0946
241993,0.0339,-0.9666,0.0942
242015,0.0339,-0.9666,0.0940
242055,0.0341,-0.9666,0.0935
242099,0.0341,-0.9664,0.0933
242116,0.0341,-0.9664,0.0931
242134,0.0341,-0.9664,0.0930
242154,0.0341,-0.9663,0.0929
242171,0.0341,-0.9663,0.0929
242193,0.0341,-0.9662,0.0929
242215,0.0341,-0.9662,0.0929
242285,0.0341,-0.9661,0.0931
242303,0.0341,-0.9661,0.0931
242322,0.0341,-0.9661,0.0933
242343,0.0341,-0.9661,0.0934
242359,0.0341,-0.9659,0.0934
242408,0.0341,-0.9659,0.0936
242425,0.0341,-0.9661,0.0938
242442,0.0341,-0.9661,0.0938
242464,0.0341,-0.9661,0.0939
242509,0.0341,-0.9661,0.0939
242535,0.0341,-0.9662,0.0939
242555,0.0339,-0.9662,0.0939
242577,0.0339,-0.9663,0.0939
242600,0.0339,-0.9663,0.0939
242620,0.0338,-0.9664,0.0939
242637,0.0338,-0.9664,0.0938
242657,0.0338,-0.9664,0.0938
242702,0.0337,-0.9666,0.0936
242733,0.0336,-0.9667,0.0935
242750,0.0336,-0.9667,0.0935
242772,0.0336,-0.9667,0.0935
242795,0.0334,-0.9667,0.0934
242812,0.0334,-0.9667,0.0934
242834,0.0334,-0.9667,0.0934
242851,0.0336,-0.9667,0.0934
242896,0.0336,-0.9666,0.0934
242918,0.0336,-0.9666,0.0934
242943,0.0337,-0.9666,0.0935
242965,0.0337,-0.9666,0.0935
242987,0.0337,-0.9666,0.0936
243011,0.0337,-0.9664,0.0936
243046,0.0338,-0.9664,0.0938
243063,0.0338,-0.9664,0.0938
243093,0.0338,-0.9664,0.0938
243116,0.0338,-0.9664,0.0938
243133,0.0338,-0.9664,0.0938
243155,0.0338,-0.9664,0.0938
243175,0.0338,-0.9664,0.0938
243199,0.0338,-0.9664,0.0938
243221,0.0338,-0.9664,0.0938
243244,0.0338,-0.9663,0.0938
243313,0.0339,-0.9663,0.0936
243346,0.0339,-0.9663,0.0936
243366,0.0339,-0.9663,0.0936
243391,0.0341,-0.9663,0.0936
243413,0.0341,-0.9663,0.0936
243431,0.0341,-0.9663,0.0936
243448,0.0342,-0.9663,0.0936
243465,0.0342,-0.9663,0.0936
243488,0.0342,-0.9664,0.0936
243533,0.0343,-0.9664,0.0936
243556,0.0343,-0.9664,0.0936
243573,0.0343,-0.9664,0.0936
243595,0.0343,-0.9664,0.0936
243618,0.0343,-0.9664,0.0935
243649,0.0343,-0.9664,0.0935
243669,0.0343,-0.9664,0.0935
243689,0.0343,-0.9664,0.0935
243711,0.0343,-0.9664,0.0935
243741,0.0343,-0.9664,0.0934
243763,0.0342,-0.9664,0.0934
243788,0.0342,-0.9664,0.0934
243810,0.0342,-0.9664,0.0934
243833,0.0342,-0.9663,0.0934
243850,0.0342,-0.9663,0.0934
243874,0.0342,-0.9663,0.0934
243891,0.0342,-0.9663,0.0934
243936,0.0341,-0.9663,0.0934
243977,0.0341,-0.9663,0.0934
243998,0.0341,-0.9663,0.0935
244020,0.0341,-0.9664,0.0935
244042,0.0341,-0.9664,0.0935
244059,0.0339,-0.9664,0.0935
244076,0.0339,-0.9664,0.0935
244099,0.0339,-0.9664,0.0936
244136,0.0339,-0.9664,0.0936
244158,0.0338,-0.9666,0.0936
244183,0.0338,-0.9666,0.0936
244202,0.0338,-0.9666,0.0936
244224,0.0338,-0.9666,0.0936
244266,0.0337,-0.9666,0.0938
244284,0.0337,-0.9666,0.0938
244305,0.0337,-0.9666,0.0938
244367,0.0337,-0.9666,0.0936
244383,0.0337,-0.9666,0.0936
244404,0.0338,-0.9666,0.0936
244427,0.0338,-0.9666,0.0936
244451,0.0339,-0.9664,0.0936
244474,0.0339,-0.9664,0.0936
244491,0.0341,-0.9664,0.0936
244546,0.0341,-0.9663,0.0935
244587,0.0342,-0.9663,0.0935
244608,0.0342,-0.9663,0.0935
244630,0.0342,-0.9663,0.0935
244652,0.0342,-0.9663,0.0935
244669,0.0342,-0.9663,0.0935
244694,0.0342,-0.9663,0.0935
244713,0.0342,-0.9663,0.0935
244743,0.0342,-0.9663,0.0935
244765,0.0342,-0.9663,0.0935
244790,0.0342,-0.9663,0.0935
244812,0.0342,-0.9663,0.0935
244830,0.0342,-0.9663,0.0935
244855,0.0341,-0.9663,0.0936
244887,0.0341,-0.9664,0.0935
244903,0.0339,-0.9664,0.0935
244940,0.0339,-0.9666,0.0930
244962,0.0339,-0.9667,0.0928
244987,0.0339,-0.9669,0.0920
245009,0.0341,-0.9672,0.0916
245031,0.0341,-0.9677,0.0912
245049,0.0345,-0.9697,0.0913
245071,0.0349,-0.9711,0.0920
245093,0.0355,-0.9724,0.0935
245136,0.0398,-0.9741,0.1039
245158,0.0428,-0.9735,0.1099
245189,0.0520,-0.9706,0.1256
245206,0.0581,-0.9683,0.1354
245227,0.0652,-0.9657,0.1464
245250,0.0812,-0.9603,0.1707
245267,0.0896,-0.9579,0.1836
245289,0.0983,-0.9558,0.1965
245308,0.1069,-0.9542,0.2091
245375,0.1421,-0.9529,0.2513
245391,0.1515,-0.9534,0.2584
245412,0.1714,-0.9546,0.2667
245433,0.1819,-0.9552,0.2678
245457,0.1929,-0.9557,0.2666
245499,0.2272,-0.9562,0.2500
245538,0.2496,-0.9551,0.2289
245561,0.2699,-0.9531,0.2015
245585,0.2787,-0.9519,0.1859
245608,0.2931,-0.9491,0.1527
245630,0.2987,-0.9476,0.1354
245647,0.3031,-0.9462,0.1182
245669,0.3065,-0.9448,0.1010
245687,0.3091,-0.9435,0.0841
245734,0.3116,-0.9402,0.0371
245754,0.3109,-0.9392,0.0228
245802,0.3046,-0.9363,-0.0143
245825,0.2972,-0.9342,-0.0336
245842,0.2930,-0.9331,-0.0415
245864,0.2883,-0.9319,-0.0482
245886,0.2838,-0.9307,-0.0538
245903,0.2793,-0.9294,-0.0583
245921,0.2710,-0.9272,-0.0648
245942,0.2671,-0.9261,-0.0670
245988,0.2560,-0.9257,-0.0717
246010,0.2517,-0.9276,-0.0731
246034,0.2466,-0.9310,-0.0747
246057,0.2328,-0.9418,-0.0789
246075,0.2240,-0.9487,-0.0811
246106,0.2030,-0.9646,-0.0856
246139,0.1780,-0.9811,-0.0885
246162,0.1643,-0.9889,-0.0890
246181,0.1499,-0.9960,-0.0885
246204,0.1200,-1.0081,-0.0842
246226,0.1046,-1.0126,-0.0804
246243,0.0890,-1.0162,-0.0754
246262,0.0731,-1.0188,-0.0693
246285,0.0403,-1.0211,-0.0541
246308,0.0234,-1.0208,-0.0452
246325,0.0062,-1.0197,-0.0356
246348,-0.0284,-1.0151,-0.0151
246420,-0.0920,-1.0005,0.0269
246455,-0.1140,-0.9923,0.0454
246472,-0.1207,-0.9883,0.0536
246494,-0.1240,-0.9845,0.0609
246517,-0.1194,-0.9777,0.0726
246571,-0.0842,-0.9692,0.0835
246591,-0.0662,-0.9669,0.0854
246614,-0.0244,-0.9628,0.0873
246632,-0.0024,-0.9613,0.0872
246656,0.0192,-0.9601,0.0865
246679,0.0588,-0.9589,0.0839
246701,0.0758,-0.9589,0.0822
246728,0.1023,-0.9596,0.0785
246762,0.1179,-0.9613,0.0756
246799,0.1227,-0.9633,0.0741
246821,0.1213,-0.9644,0.0742
246846,0.1125,-0.9663,0.0762
246868,0.1056,-0.9672,0.0781
246890,0.0974,-0.9679,0.0806
246908,0.0785,-0.9689,0.0868
246935,0.0684,-0.9691,0.0905
246957,0.0482,-0.9692,0.0981
246995,0.0295,-0.9689,0.1058
247017,0.0211,-0.9686,0.1095
247068,0.0015,-0.9674,0.1183
247091,-0.0068,-0.9666,0.1221
247111,-0.0095,-0.9661,0.1233
247135,-0.0114,-0.9657,0.1240
247158,-0.0126,-0.9650,0.1244
247195,-0.0110,-0.9644,0.1233
247217,-0.0094,-0.9642,0.1224
247244,-0.0052,-0.9640,0.1201
247266,-0.0028,-0.9639,0.1188
247287,0.0022,-0.9639,0.1161
247303,0.0048,-0.9639,0.1147
247323,0.0072,-0.9640,0.1135
247342,0.0095,-0.9640,0.1124
247379,0.0135,-0.9642,0.1105
247439,0.0186,-0.9646,0.1085
247456,0.0192,-0.9647,0.1085
247475,0.0195,-0.9647,0.1088
247496,0.0197,-0.9647,0.1093
247514,0.0197,-0.9647,0.1101
247531,0.0194,-0.9646,0.1112
247548,0.0190,-0.9645,0.1127
247571,0.0179,-0.9642,0.1161
247608,0.0167,-0.9637,0.1201
247630,0.0160,-0.9635,0.1222
247671,0.0140,-0.9628,0.1283
247693,0.0135,-0.9625,0.1304
247718,0.0126,-0.9619,0.1348
247740,0.0122,-0.9615,0.1372
247757,0.0120,-0.9612,0.1399
247802,0.0115,-0.9600,0.1497
247822,0.0115,-0.9595,0.1536
247847,0.0116,-0.9585,0.1622
247869,0.0118,-0.9580,0.1669
247891,0.0120,-0.9575,0.1716
247908,0.0123,-0.9572,0.1765
247926,0.0126,-0.9567,0.1813
247951,0.0132,-0.9557,0.1906
247991,0.0138,-0.9548,0.1989
248022,0.0144,-0.9540,0.2056
248045,0.0150,-0.9534,0.2104
248062,0.0153,-0.9531,0.2120
248084,0.0155,-0.9530,0.2129
248106,0.0156,-0.9529,0.2134
248123,0.0157,-0.9529,0.2131
248146,0.0157,-0.9530,0.2111
248163,0.0157,-0.9531,0.2092
248208,0.0151,-0.9537,0.2019
248230,0.0149,-0.9541,0.1990
248254,0.0145,-0.9543,0.1958
248285,0.0137,-0.9551,0.1892
248308,0.0128,-0.9559,0.1820
248330,0.0123,-0.9564,0.1783
248352,0.0120,-0.9570,0.1746
248370,0.0116,-0.9578,0.1705
248432,0.0106,-0.9611,0.1530
248449,0.0106,-0.9618,0.1477
248472,0.0106,-0.9633,0.1362
248492,0.0107,-0.9641,0.1298
248510,0.0107,-0.9648,0.1228
248532,0.0107,-0.9657,0.1154
248555,0.0107,-0.9675,0.0990
248598,0.0105,-0.9694,0.0811
248633,0.0100,-0.9712,0.0623
248653,0.0092,-0.9731,0.0435
248675,0.0088,-0.9740,0.0343
248697,0.0083,-0.9749,0.0254
248714,0.0078,-0.9757,0.0170
248737,0.0070,-0.9774,0.0017
248759,0.0066,-0.9781,-0.0050
248795,0.0059,-0.9795,-0.0164
248818,0.0054,-0.9806,-0.0248
248837,0.0052,-0.9811,-0.0280
248857,0.0052,-0.9814,-0.0302
248878,0.0051,-0.9818,-0.0317
248905,0.0052,-0.9822,-0.0322
248936,0.0056,-0.9822,-0.0294
248956,0.0059,-0.9821,-0.0267
248976,0.0061,-0.9817,-0.0231
248998,0.0067,-0.9807,-0.0132
249021,0.0071,-0.9800,-0.0070
249052,0.0078,-0.9784,0.0076
249074,0.0082,-0.9774,0.0156
249099,0.0089,-0.9753,0.0332
249121,0.0093,-0.9741,0.0424
249143,0.0096,-0.9730,0.0516
249160,0.0100,-0.9718,0.0609
249177,0.0103,-0.9706,0.0701
249200,0.0109,-0.9684,0.0872
249237,0.0112,-0.9664,0.1021
249271,0.0115,-0.9648,0.1140
249294,0.0117,-0.9636,0.1226
249311,0.0117,-0.9633,0.1256
249330,0.0117,-0.9629,0.1278
249350,0.0117,-0.9626,0.1293
249372,0.0117,-0.9625,0.1300
249390,0.0116,-0.9625,0.1300
249413,0.0115,-0.9626,0.1285
249489,0.0111,-0.9635,0.1215
249506,0.0111,-0.9639,0.1193
249548,0.0109,-0.9646,0.1132
249565,0.0107,-0.9648,0.1113
249593,0.0107,-0.9653,0.1083
249615,0.0107,-0.9655,0.1071
249654,0.0106,-0.9657,0.1052
249677,0.0107,-0.9659,0.1042
249694,0.0107,-0.9659,0.1040
249716,0.0107,-0.9659,0.1039
249734,0.0107,-0.9659,0.1040
249759,0.0107,-0.9659,0.1045
249781,0.0107,-0.9658,0.1049
249798,0.0107,-0.9658,0.1053
249843,0.0109,-0.9656,0.1069
249888,0.0109,-0.9653,0.1085
249905,0.0109,-0.9653,0.1090
249927,0.0109,-0.9652,0.1095
249949,0.0109,-0.9652,0.1099
249966,0.0109,-0.9651,0.1101
249989,0.0109,-0.9651,0.1106
250006,0.0109,-0.9650,0.1108
250043,0.0109,-0.9650,0.1110
250064,0.0109,-0.9650,0.1110
250085,0.0109,-0.9650,0.1108
250107,0.0110,-0.9651,0.1108
250129,0.0110,-0.9651,0.1107
250146,0.0110,-0.9651,0.1106
250177,0.0110,-0.9652,0.1104
250202,0.0110,-0.9652,0.1100
250233,0.0110,-0.9653,0.1097
250255,0.0110,-0.9653,0.1096
250272,0.0110,-0.9655,0.1095
250294,0.0110,-0.9655,0.1094
250318,0.0110,-0.9655,0.1091
250339,0.0110,-0.9655,0.1091
250361,0.0109,-0.9655,0.1090
250380,0.0109,-0.9655,0.1090
250405,0.0109,-0.9655,0.1090
250428,0.0109,-0.9655,0.1090
250450,0.0109,-0.9653,0.1090
250535,0.0109,-0.9652,0.1093
250554,0.0109,-0.9652,0.1093
250575,0.0109,-0.9652,0.1094
250608,0.0109,-0.9651,0.1094
250643,0.0109,-0.9651,0.1095
250663,0.0109,-0.9651,0.1095
250680,0.0109,-0.9651,0.1094
250702,0.0109,-0.9651,0.1094
250724,0.0109,-0.9651,0.1094
250749,0.0110,-0.9651,0.1093
250790,0.0110,-0.9651,0.1093
250815,0.0110,-0.9652,0.1093
250832,0.0110,-0.9652,0.1093
250854,0.0110,-0.9652,0.1094
250899,0.0110,-0.9652,0.1095
250919,0.0110,-0.9652,0.1096
250944,0.0110,-0.9652,0.1099
250966,0.0110,-0.9652,0.1100
250989,0.0110,-0.9652,0.1102
251006,0.0110,-0.9652,0.1104
251026,0.0110,-0.9652,0.1105
251048,0.0109,-0.9652,0.1105
251115,0.0109,-0.9652,0.1107
251140,0.0109,-0.9651,0.1107
251162,0.0109,-0.9651,0.1107
251184,0.0109,-0.9652,0.1106
251201,0.0109,-0.9652,0.1105
251224,0.0107,-0.9652,0.1101
251241,0.0107,-0.9652,0.1099
251286,0.0107,-0.9653,0.1088
251310,0.0107,-0.9653,0.1084
251332,0.0107,-0.9655,0.1082
251355,0.0109,-0.9655,0.1074
251393,0.0109,-0.9656,0.1071
251410,0.0109,-0.9656,0.1069
251429,0.0109,-0.9656,0.1068
251447,0.0109,-0.9656,0.1067
251514,0.0109,-0.9655,0.1074
251532,0.0110,-0.9653,0.1078
251554,0.0110,-0.9653,0.1084
251575,0.0110,-0.9652,0.1091
251595,0.0110,-0.9651,0.1101
251618,0.0110,-0.9647,0.1128
251642,0.0111,-0.9645,0.1144
251691,0.0112,-0.9637,0.1207
251726,0.0115,-0.9631,0.1265
251743,0.0116,-0.9628,0.1299
251766,0.0120,-0.9619,0.1382
251788,0.0121,-0.9613,0.1432
251805,0.0123,-0.9607,0.1486
251828,0.0129,-0.9592,0.1610
251845,0.0133,-0.9585,0.1678
251882,0.0139,-0.9567,0.1830
251904,0.0143,-0.9557,0.1910
251929,0.0149,-0.9539,0.2080
251949,0.0153,-0.9529,0.2164
251971,0.0155,-0.9519,0.2249
251996,0.0161,-0.9500,0.2407
252027,0.0166,-0.9482,0.2546
252051,0.0167,-0.9475,0.2605
252082,0.0170,-0.9463,0.2698
252103,0.0168,-0.9459,0.2731
252128,0.0165,-0.9453,0.2766
252150,0.0161,-0.9452,0.2770
252172,0.0157,-0.9453,0.2764
252190,0.0148,-0.9457,0.2723
252212,0.0143,-0.9460,0.2692
252234,0.0138,-0.9464,0.2650
252251,0.0134,-0.9470,0.2601
252268,0.0131,-0.9476,0.2545
252291,0.0125,-0.9493,0.2404
252329,0.0120,-0.9514,0.2220
252360,0.0114,-0.9541,0.1995
252376,0.0111,-0.9556,0.1865
252401,0.0106,-0.9572,0.1727
252424,0.0098,-0.9606,0.1426
252446,0.0093,-0.9624,0.1268
252520,0.0067,-0.9719,0.0477
252537,0.0062,-0.9736,0.0334
252559,0.0060,-0.9753,0.0200
252581,0.0057,-0.9769,0.0078
252597,0.0055,-0.9784,-0.0032
252649,0.0055,-0.9819,-0.0283
252674,0.0057,-0.9834,-0.0386
252696,0.0060,-0.9840,-0.0419
252741,0.0066,-0.9847,-0.0453
252763,0.0067,-0.9847,-0.0443
252788,0.0071,-0.9844,-0.0393
252810,0.0073,-0.9839,-0.0349
252833,0.0077,-0.9824,-0.0220
252853,0.0079,-0.9813,-0.0131
252877,0.0082,-0.9800,-0.0026
252900,0.0087,-0.9767,0.0231
252960,0.0094,-0.9703,0.0714
252983,0.0100,-0.9655,0.1079
253005,0.0103,-0.9630,0.1267
253027,0.0105,-0.9606,0.1455
253044,0.0109,-0.9583,0.1639
253067,0.0115,-0.9540,0.1989
253084,0.0118,-0.9521,0.2150
253129,0.0133,-0.9475,0.2559
253150,0.0139,-0.9463,0.2667
253174,0.0145,-0.9452,0.2761
253197,0.0159,-0.9435,0.2903
253243,0.0176,-0.9421,0.2988
253260,0.0178,-0.9421,0.2977
253282,0.0181,-0.9425,0.2943
253304,0.0181,-0.9431,0.2887
253338,0.0176,-0.9454,0.2701
253359,0.0167,-0.9490,0.2427
253375,0.0161,-0.9512,0.2261
253395,0.0155,-0.9535,0.2078
253416,0.0149,-0.9561,0.1884
253439,0.0143,-0.9587,0.1678
253460,0.0129,-0.9644,0.1256
253482,0.0122,-0.9670,0.1044
253556,0.0088,-0.9788,0.0104
253597,0.0074,-0.9819,-0.0178
253614,0.0068,-0.9833,-0.0293
253634,0.0062,-0.9843,-0.0391
253658,0.0054,-0.9857,-0.0533
253678,0.0050,-0.9862,-0.0580
253702,0.0049,-0.9865,-0.0612
253725,0.0046,-0.9863,-0.0631
253756,0.0049,-0.9857,-0.0604
253774,0.0050,-0.9852,-0.0576
253798,0.0052,-0.9847,-0.0541
253821,0.0060,-0.9835,-0.0446
253843,0.0063,-0.9828,-0.0386
253891,0.0077,-0.9800,-0.0142
253908,0.0082,-0.9786,-0.0033
253945,0.0094,-0.9756,0.0228
253968,0.0109,-0.9717,0.0554
253992,0.0116,-0.9695,0.0740
254012,0.0125,-0.9670,0.0939
254035,0.0142,-0.9618,0.1368
254059,0.0150,-0.9590,0.1594
254081,0.0159,-0.9562,0.1821
254106,0.0173,-0.9504,0.2268
254143,0.0186,-0.9449,0.2679
254165,0.0193,-0.9403,0.3027
254200,0.0197,-0.9366,0.3286
254217,0.0197,-0.9354,0.3374
254235,0.0195,-0.9346,0.3433
254257,0.0194,-0.9342,0.3458
254274,0.0192,-0.9344,0.3451
254297,0.0184,-0.9360,0.3334
254317,0.0179,-0.9375,0.3224
254363,0.0157,-0.9441,0.2721
254385,0.0148,-0.9469,0.2505
254402,0.0137,-0.9500,0.2271
254424,0.0126,-0.9531,0.2024
254447,0.0103,-0.9597,0.1511
254464,0.0093,-0.9630,0.1254
254502,0.0073,-0.9694,0.0760
254580,0.0045,-0.9819,-0.0209
254597,0.0043,-0.9835,-0.0342
254619,0.0043,-0.9849,-0.0453
254640,0.0043,-0.9857,-0.0542
254661,0.0045,-0.9868,-0.0657
254680,0.0046,-0.9869,-0.0686
254702,0.0048,-0.9868,-0.0698
254721,0.0049,-0.9866,-0.0696
254738,0.0050,-0.9861,-0.0680
254761,0.0051,-0.9850,-0.0619
254801,0.0051,-0.9838,-0.0532
254832,0.0050,-0.9827,-0.0436
254849,0.0049,-0.9822,-0.0387
254871,0.0049,-0.9818,-0.0338
254894,0.0049,-0.9811,-0.0243
254911,0.0050,-0.9807,-0.0194
254935,0.0051,-0.9803,-0.0143
254958,0.0056,-0.9792,-0.0022
254989,0.0065,-0.9777,0.0134
255011,0.0070,-0.9766,0.0231
255038,0.0081,-0.9739,0.0469
255060,0.0088,-0.9722,0.0612
255082,0.0095,-0.9702,0.0773
255099,0.0104,-0.9681,0.0948
255141,0.0131,-0.9606,0.1562
255181,0.0151,-0.9548,0.2015
255204,0.0171,-0.9490,0.2472
255228,0.0181,-0.9460,0.2692
255251,0.0198,-0.9407,0.3092
255273,0.0204,-0.9382,0.3264
255290,0.0209,-0.9363,0.3413
255312,0.0211,-0.9346,0.3534
255335,0.0211,-0.9327,0.3679
255378,0.0203,-0.9327,0.3680
255401,0.0188,-0.9349,0.3531
255441,0.0170,-0.9388,0.3240
255463,0.0160,-0.9414,0.3047
255480,0.0149,-0.9443,0.2827
255499,0.0126,-0.9507,0.2328
255521,0.0115,-0.9541,0.2057
255543,0.0103,-0.9575,0.1780
255561,0.0092,-0.9611,0.1500
255584,0.0070,-0.9677,0.0955
255658,0.0037,-0.9789,0.0021
255674,0.0032,-0.9811,-0.0162
255697,0.0026,-0.9845,-0.0457
255743,0.0026,-0.9868,-0.0656
255763,0.0031,-0.9880,-0.0763
255785,0.0033,-0.9883,-0.0786
255807,0.0037,-0.9884,-0.0792
255840,0.0045,-0.9878,-0.0759
255863,0.0052,-0.9867,-0.0681
255880,0.0056,-0.9860,-0.0631
255902,0.0060,-0.9852,-0.0577
255924,0.0062,-0.9845,-0.0520
255942,0.0066,-0.9829,-0.0406
255966,0.0066,-0.9822,-0.0352
255988,0.0067,-0.9814,-0.0299
256029,0.0066,-0.9799,-0.0159
256072,0.0066,-0.9789,-0.0068
256090,0.0068,-0.9778,0.0038
256112,0.0071,-0.9771,0.0104
256134,0.0073,-0.9762,0.0181
256151,0.0077,-0.9752,0.0270
256167,0.0082,-0.9740,0.0375
256191,0.0093,-0.9712,0.0631
256228,0.0107,-0.9677,0.0950
256250,0.0116,-0.9657,0.1129
256275,0.0133,-0.9615,0.1517
256297,0.0142,-0.9596,0.1721
256319,0.0150,-0.9576,0.1926
256337,0.0170,-0.9539,0.2330
256362,0.0178,-0.9520,0.2522
256383,0.0187,-0.9502,0.2701
256421,0.0210,-0.9448,0.3137
256443,0.0214,-0.9432,0.3239
256467,0.0217,-0.9418,0.3314
256490,0.0219,-0.9398,0.3374
256512,0.0216,-0.9395,0.3357
256529,0.0214,-0.9396,0.3307
256552,0.0204,-0.9412,0.3113
256577,0.0198,-0.9426,0.2970
256644,0.0167,-0.9519,0.2166
256695,0.0140,-0.9608,0.1425
256716,0.0123,-0.9668,0.0930
256738,0.0115,-0.9696,0.0693
256760,0.0107,-0.9723,0.0469
256781,0.0096,-0.9772,0.0068
256803,0.0092,-0.9792,-0.0104
256825,0.0089,-0.9810,-0.0256
256869,0.0087,-0.9850,-0.0582
256891,0.0088,-0.9858,-0.0648
256908,0.0089,-0.9863,-0.0695
256931,0.0095,-0.9869,-0.0732
256977,0.0103,-0.9867,-0.0712
257013,0.0115,-0.9855,-0.0603
257035,0.0117,-0.9849,-0.0554
257059,0.0121,-0.9844,-0.0503
257079,0.0126,-0.9832,-0.0398
257101,0.0127,-0.9825,-0.0348
257125,0.0128,-0.9821,-0.0300
257148,0.0129,-0.9811,-0.0214
257168,0.0129,-0.9807,-0.0173
257188,0.0129,-0.9803,-0.0134
257211,0.0129,-0.9794,-0.0048
257233,0.0129,-0.9786,0.0006
257264,0.0131,-0.9767,0.0146
257299,0.0134,-0.9738,0.0353
257316,0.0137,-0.9720,0.0485
257338,0.0140,-0.9701,0.0637
257361,0.0148,-0.9656,0.0997
257381,0.0153,-0.9631,0.1201
257398,0.0159,-0.9604,0.1416
257420,0.0165,-0.9579,0.1637
257458,0.0186,-0.9500,0.2302
257480,0.0194,-0.9475,0.2511
257504,0.0201,-0.9452,0.2708
257527,0.0216,-0.9412,0.3048
257549,0.0222,-0.9397,0.3188
257566,0.0228,-0.9384,0.3306
257602,0.0237,-0.9370,0.3458
257624,0.0239,-0.9371,0.3488
257684,0.0231,-0.9404,0.3276
257700,0.0225,-0.9423,0.3141
257723,0.0209,-0.9467,0.2782
257745,0.0200,-0.9492,0.2567
257762,0.0190,-0.9519,0.2334
257785,0.0173,-0.9578,0.1832
257807,0.0165,-0.9608,0.1573
257852,0.0142,-0.9697,0.0814
257874,0.0135,-0.9724,0.0581
257905,0.0125,-0.9773,0.0160
257925,0.0120,-0.9794,-0.0023
257947,0.0116,-0.9812,-0.0187
257970,0.0107,-0.9841,-0.0449
257987,0.0105,-0.9851,-0.0549
258009,0.0104,-0.9860,-0.0629
258026,0.0101,-0.9866,-0.0690
258065,0.0103,-0.9871,-0.0765
258087,0.0104,-0.9868,-0.0762
258108,0.0105,-0.9866,-0.0745
258131,0.0110,-0.9857,-0.0684
258153,0.0114,-0.9851,-0.0641
258170,0.0117,-0.9846,-0.0594
258211,0.0125,-0.9833,-0.0494
258256,0.0135,-0.9814,-0.0341
258279,0.0144,-0.9803,-0.0242
258296,0.0148,-0.9799,-0.0189
258318,0.0151,-0.9792,-0.0133
258340,0.0155,-0.9785,-0.0070
258357,0.0159,-0.9777,0.0002
258380,0.0167,-0.9757,0.0183
258402,0.0172,-0.9745,0.0294
258429,0.0182,-0.9716,0.0563
258451,0.0188,-0.9698,0.0719
258473,0.0194,-0.9680,0.0889
258504,0.0206,-0.9639,0.1261
258535,0.0219,-0.9595,0.1660
258552,0.0226,-0.9572,0.1862
258575,0.0237,-0.9526,0.2253
258597,0.0243,-0.9504,0.2438
258619,0.0247,-0.9484,0.2611
258637,0.0251,-0.9464,0.2769
258660,0.0255,-0.9430,0.3035
258728,0.0255,-0.9385,0.3334
258746,0.0254,-0.9379,0.3361
258766,0.0251,-0.9376,0.3368
258789,0.0247,-0.9380,0.3328
258835,0.0239,-0.9393,0.3214
258857,0.0229,-0.9418,0.3024
258895,0.0217,-0.9451,0.2759
258917,0.0209,-0.9470,0.2598
258942,0.0192,-0.9515,0.2231
258964,0.0183,-0.9540,0.2030
258987,0.0166,-0.9592,0.1605
259006,0.0157,-0.9618,0.1388
259028,0.0151,-0.9645,0.1172
259045,0.0145,-0.9670,0.0959
259090,0.0134,-0.9740,0.0372
259106,0.0132,-0.9761,0.0200
259145,0.0129,-0.9796,-0.0098
259162,0.0128,-0.9811,-0.0223
259182,0.0127,-0.9824,-0.0331
259204,0.0126,-0.9844,-0.0499
259220,0.0126,-0.9851,-0.0559
259242,0.0126,-0.9856,-0.0604
259259,0.0126,-0.9860,-0.0636
259304,0.0127,-0.9865,-0.0660
259326,0.0128,-0.9865,-0.0649
259351,0.0133,-0.9861,-0.0607
259373,0.0135,-0.9857,-0.0576
259395,0.0139,-0.9852,-0.0542
259412,0.0143,-0.9847,-0.0503
259444,0.0151,-0.9835,-0.0420
259459,0.0155,-0.9829,-0.0377
259498,0.0166,-0.9808,-0.0253
259518,0.0168,-0.9802,-0.0214
259541,0.0172,-0.9796,-0.0178
259560,0.0175,-0.9791,-0.0145
259583,0.0178,-0.9783,-0.0088
259607,0.0179,-0.9780,-0.0062
259630,0.0182,-0.9775,-0.0013
259649,0.0183,-0.9773,0.0011
259718,0.0184,-0.9763,0.0131
259749,0.0184,-0.9755,0.0212
259766,0.0184,-0.9750,0.0260
259788,0.0184,-0.9745,0.0311
259811,0.0186,-0.9733,0.0424
259828,0.0187,-0.9725,0.0483
259850,0.0187,-0.9719,0.0544
259867,0.0188,-0.9712,0.0605
259904,0.0190,-0.9697,0.0728
259927,0.0193,-0.9683,0.0841
259951,0.0194,-0.9677,0.0894
259973,0.0195,-0.9670,0.0941
259996,0.0198,-0.9661,0.1024
260016,0.0199,-0.9656,0.1058
260058,0.0201,-0.9647,0.1128
260104,0.0203,-0.9645,0.1149
260127,0.0204,-0.9644,0.1154
260144,0.0204,-0.9645,0.1150
260163,0.0205,-0.9645,0.1144
260185,0.0205,-0.9646,0.1134
260210,0.0204,-0.9648,0.1112
260231,0.0204,-0.9651,0.1099
260255,0.0204,-0.9655,0.1073
260295,0.0203,-0.9657,0.1047
260317,0.0203,-0.9659,0.1036
260358,0.0201,-0.9663,0.1008
260380,0.0200,-0.9663,0.1002
260400,0.0200,-0.9664,0.0997
260423,0.0200,-0.9666,0.0990
260445,0.0200,-0.9666,0.0989
260462,0.0199,-0.9666,0.0988
260479,0.0199,-0.9666,0.0989
260502,0.0199,-0.9666,0.0991
260546,0.0199,-0.9666,0.0997
260569,0.0199,-0.9664,0.1003
260593,0.0199,-0.9664,0.1007
260616,0.0199,-0.9663,0.1014
260663,0.0199,-0.9663,0.1021
260684,0.0200,-0.9662,0.1025
260706,0.0200,-0.9662,0.1028
260726,0.0200,-0.9661,0.1029
260796,0.0201,-0.9661,0.1033
260817,0.0201,-0.9659,0.1031
260839,0.0201,-0.9659,0.1031
260861,0.0201,-0.9659,0.1030
260884,0.0201,-0.9659,0.1029
260906,0.0203,-0.9659,0.1028
260929,0.0203,-0.9659,0.1025
260960,0.0203,-0.9659,0.1024
261001,0.0203,-0.9659,0.1021
261018,0.0203,-0.9659,0.1021
261040,0.0201,-0.9659,0.1019
261063,0.0201,-0.9659,0.1018
261080,0.0201,-0.9659,0.1018
261098,0.0201,-0.9659,0.1017
261120,0.0201,-0.9659,0.1017
261161,0.0201,-0.9659,0.1017
261181,0.0201,-0.9659,0.1017
261198,0.0201,-0.9659,0.1018
261219,0.0201,-0.9659,0.1018
261240,0.0201,-0.9659,0.1018
261265,0.0201,-0.9659,0.1019
261297,0.0201,-0.9659,0.1021
261314,0.0201,-0.9659,0.1021
261352,0.0201,-0.9659,0.1022
261375,0.0200,-0.9659,0.1022
261395,0.0200,-0.9659,0.1022
261417,0.0200,-0.9659,0.1023
261440,0.0200,-0.9659,0.1023
261457,0.0200,-0.9661,0.1023
261479,0.0200,-0.9661,0.1022
261501,0.0200,-0.9661,0.1022
261541,0.0200,-0.9661,0.1022
261563,0.0200,-0.9661,0.1021
261604,0.0200,-0.9661,0.1021
261621,0.0200,-0.9661,0.1021
261643,0.0200,-0.9661,0.1021
261665,0.0200,-0.9661,0.1021
261687,0.0201,-0.9661,0.1021
261709,0.0201,-0.9661,0.1021
261727,0.0201,-0.9661,0.1021
261786,0.0203,-0.9661,0.1021
261803,0.0203,-0.9661,0.1021
261821,0.0203,-0.9661,0.1022
261843,0.0203,-0.9661,0.1022
261868,0.0203,-0.9661,0.1022
261906,0.0203,-0.9661,0.1023
261923,0.0203,-0.9661,0.1023
261965,0.0201,-0.9661,0.1023
261988,0.0201,-0.9659,0.1024
262005,0.0201,-0.9659,0.1024
262027,0.0201,-0.9659,0.1024
262050,0.0201,-0.9658,0.1024
262067,0.0200,-0.9658,0.1024
262089,0.0200,-0.9658,0.1024
262111,0.0200,-0.9658,0.1024
262131,0.0200,-0.9658,0.1024
262153,0.0200,-0.9658,0.1023
262175,0.0200,-0.9658,0.1023
262211,0.0200,-0.9657,0.1023
262243,0.0200,-0.9657,0.1023
262264,0.0200,-0.9658,0.1023
262286,0.0200,-0.9658,0.1023
262308,0.0200,-0.9658,0.1023
262325,0.0201,-0.9658,0.1023
262342,0.0201,-0.9658,0.1023
262365,0.0201,-0.9658,0.1023
262402,0.0201,-0.9658,0.1023
262424,0.0201,-0.9659,0.1024
262449,0.0203,-0.9659,0.1024
262471,0.0203,-0.9659,0.1024
262494,0.0203,-0.9659,0.1024
262511,0.0203,-0.9659,0.1024
262552,0.0203,-0.9659,0.1024
262569,0.0203,-0.9659,0.1024
262600,0.0201,-0.9659,0.1024
262622,0.0201,-0.9659,0.1025
262643,0.0201,-0.9659,0.1024
262665,0.0201,-0.9659,0.1024
262687,0.0201,-0.9659,0.1024
262709,0.0201,-0.9659,0.1024
262729,0.0200,-0.9659,0.1024
262752,0.0200,-0.9659,0.1023
262832,0.0200,-0.9658,0.1022
262868,0.0200,-0.9658,0.1021
262891,0.0200,-0.9658,0.1021
262908,0.0200,-0.9658,0.1021
262930,0.0200,-0.9658,0.1021
262952,0.0200,-0.9658,0.1021
262993,0.0200,-0.9658,0.1021
263015,0.0200,-0.9658,0.1021
263032,0.0200,-0.9659,0.1021
263055,0.0200,-0.9659,0.1021
263077,0.0200,-0.9659,0.1021
263097,0.0200,-0.9661,0.1021
263120,0.0200,-0.9661,0.1021
263166,0.0199,-0.9661,0.1021
263199,0.0199,-0.9662,0.1019
263220,0.0199,-0.9662,0.1019
263242,0.0199,-0.9662,0.1019
263264,0.0199,-0.9662,0.1019
263287,0.0199,-0.9662,0.1022
263306,0.0200,-0.9662,0.1025
263328,0.0200,-0.9661,0.1031
263351,0.0200,-0.9658,0.1051
263368,0.0201,-0.9656,0.1066
263385,0.0201,-0.9653,0.1084
263407,0.0203,-0.9650,0.1107
263452,0.0205,-0.9636,0.1208
263493,0.0209,-0.9623,0.1309
263510,0.0211,-0.9614,0.1368
263533,0.0215,-0.9597,0.1508
263551,0.0217,-0.9586,0.1586
263568,0.0220,-0.9576,0.1669
263585,0.0222,-0.9564,0.1757
263607,0.0225,-0.9553,0.1847
263652,0.0232,-0.9518,0.2128
263674,0.0233,-0.9507,0.2219
263699,0.0237,-0.9484,0.2391
263721,0.0238,-0.9473,0.2469
263739,0.0238,-0.9462,0.2540
263791,0.0234,-0.9436,0.2695
263810,0.0231,-0.9427,0.2739
263876,0.0221,-0.9440,0.2639
263893,0.0219,-0.9449,0.2568
263915,0.0216,-0.9463,0.2479
263937,0.0215,-0.9479,0.2369
263954,0.0212,-0.9497,0.2242
263977,0.0206,-0.9542,0.1941
263995,0.0204,-0.9567,0.1770
264012,0.0200,-0.9592,0.1588
264043,0.0190,-0.9646,0.1208
264089,0.0175,-0.9723,0.0638
264106,0.0168,-0.9746,0.0459
264128,0.0162,-0.9768,0.0288
264150,0.0157,-0.9788,0.0129
264167,0.0153,-0.9805,-0.0018
264190,0.0144,-0.9833,-0.0270
264207,0.0140,-0.9844,-0.0372
264244,0.0135,-0.9860,-0.0531
264262,0.0133,-0.9865,-0.0587
264287,0.0133,-0.9868,-0.0654
264309,0.0133,-0.9868,-0.0668
264331,0.0134,-0.9866,-0.0668
264348,0.0135,-0.9863,-0.0658
264394,0.0143,-0.9847,-0.0571
264437,0.0153,-0.9825,-0.0425
264459,0.0155,-0.9818,-0.0369
264484,0.0161,-0.9802,-0.0249
264502,0.0165,-0.9795,-0.0187
264524,0.0167,-0.9786,-0.0123
264548,0.0171,-0.9779,-0.0057
264571,0.0176,-0.9763,0.0078
264593,0.0178,-0.9756,0.0148
264612,0.0181,-0.9749,0.0219
264635,0.0186,-0.9733,0.0361
264657,0.0187,-0.9724,0.0432
264688,0.0192,-0.9709,0.0569
264723,0.0194,-0.9696,0.0697
264740,0.0195,-0.9690,0.0756
264761,0.0197,-0.9684,0.0809
264781,0.0199,-0.9674,0.0901
264798,0.0199,-0.9669,0.0939
264816,0.0200,-0.9667,0.0970
264849,0.0201,-0.9662,0.1016
264917,0.0201,-0.9659,0.1045
264937,0.0201,-0.9659,0.1044
264959,0.0201,-0.9661,0.1039
264982,0.0200,-0.9662,0.1022
265022,0.0200,-0.9664,0.1001
265044,0.0199,-0.9668,0.0977
265082,0.0199,-0.9670,0.0955
265104,0.0199,-0.9670,0.0945
265129,0.0198,-0.9673,0.0927
265151,0.0198,-0.9673,0.0920
265173,0.0198,-0.9674,0.0914
265190,0.0198,-0.9674,0.0909
265213,0.0198,-0.9674,0.0905
265237,0.0198,-0.9674,0.0903
265275,0.0198,-0.9674,0.0906
265296,0.0198,-0.9673,0.0907
265327,0.0198,-0.9672,0.0913
265344,0.0198,-0.9672,0.0917
265366,0.0198,-0.9672,0.0920
265389,0.0199,-0.9670,0.0927
265406,0.0199,-0.9669,0.0930
265428,0.0199,-0.9669,0.0933
265445,0.0199,-0.9668,0.0935
265485,0.0199,-0.9668,0.0940
265508,0.0199,-0.9668,0.0944
265525,0.0199,-0.9667,0.0945
265547,0.0199,-0.9667,0.0945
265570,0.0199,-0.9668,0.0946
265587,0.0199,-0.9668,0.0946
265635,0.0199,-0.9668,0.0945
265676,0.0198,-0.9669,0.0942
265698,0.0198,-0.9669,0.0941
265715,0.0198,-0.9669,0.0940
265733,0.0198,-0.9670,0.0940
265755,0.0198,-0.9670,0.0938
265779,0.0198,-0.9670,0.0936
265796,0.0197,-0.9672,0.0935
265818,0.0197,-0.9672,0.0934
265840,0.0197,-0.9672,0.0933
265859,0.0197,-0.9672,0.0933
265878,0.0197,-0.9672,0.0933
265952,0.0198,-0.9672,0.0933
265990,0.0198,-0.9672,0.0933
266007,0.0198,-0.9672,0.0933
266029,0.0199,-0.9672,0.0934
266052,0.0199,-0.9672,0.0934
266085,0.0199,-0.9670,0.0935
266104,0.0199,-0.9670,0.0935
266127,0.0199,-0.9670,0.0936
266149,0.0199,-0.9670,0.0936
266170,0.0199,-0.9669,0.0936
266192,0.0199,-0.9669,0.0938
266215,0.0199,-0.9669,0.0938
266237,0.0199,-0.9669,0.0938
266255,0.0199,-0.9669,0.0939
266295,0.0199,-0.9670,0.0939
266339,0.0198,-0.9670,0.0939
266362,0.0198,-0.9670,0.0939
266386,0.0198,-0.9670,0.0939
266408,0.0198,-0.9670,0.0939
266431,0.0198,-0.9672,0.0939
266447,0.0198,-0.9672,0.0939
266469,0.0198,-0.9672,0.0938
266489,0.0198,-0.9672,0.0938
266536,0.0197,-0.9673,0.0938
266558,0.0197,-0.9673,0.0936
266590,0.0197,-0.9673,0.0936
266607,0.0197,-0.9673,0.0936
266629,0.0197,-0.9673,0.0936
266651,0.0197,-0.9673,0.0936
266668,0.0197,-0.9673,0.0936
266685,0.0195,-0.9673,0.0936
266703,0.0195,-0.9673,0.0936
266748,0.0195,-0.9672,0.0936
266769,0.0195,-0.9672,0.0936
266794,0.0197,-0.9672,0.0938
266814,0.0197,-0.9672,0.0938
266837,0.0197,-0.9670,0.0938
266862,0.0197,-0.9670,0.0938
266898,0.0197,-0.9670,0.0939
266916,0.0197,-0.9670,0.0939
266982,0.0195,-0.9669,0.0939
266999,0.0197,-0.9669,0.0939
267022,0.0198,-0.9669,0.0939
267044,0.0198,-0.9669,0.0939
267061,0.0199,-0.9669,0.0939
267084,0.0200,-0.9670,0.0939
267108,0.0201,-0.9670,0.0939
267156,0.0204,-0.9672,0.0936
267197,0.0204,-0.9673,0.0934
267218,0.0203,-0.9674,0.0929
267240,0.0203,-0.9674,0.0925
267259,0.0201,-0.9675,0.0923
267277,0.0201,-0.9678,0.0920
267300,0.0204,-0.9685,0.0920
267322,0.0206,-0.9692,0.0924
267352,0.0216,-0.9714,0.0936
267374,0.0223,-0.9725,0.0945
267399,0.0248,-0.9741,0.0967
267421,0.0266,-0.9746,0.0978
267443,0.0291,-0.9750,0.0990
267460,0.0325,-0.9750,0.1003
267499,0.0520,-0.9742,0.1051
267516,0.0630,-0.9741,0.1069
267550,0.0933,-0.9758,0.1100
267572,0.1125,-0.9778,0.1110
267592,0.1342,-0.9807,0.1116
267615,0.1821,-0.9899,0.1102
267637,0.2069,-0.9958,0.1079
267654,0.2313,-1.0026,0.1042
267677,0.2755,-1.0167,0.0924
267699,0.2937,-1.0237,0.0839
267716,0.3085,-1.0300,0.0736
267734,0.3193,-1.0353,0.0616
267754,0.3259,-1.0394,0.0481
267823,0.3074,-1.0399,-0.0198
267846,0.2733,-1.0304,-0.0588
267868,0.2513,-1.0237,-0.0790
267891,0.2001,-1.0077,-0.1187
267908,0.1719,-0.9989,-0.1378
267933,0.1428,-0.9901,-0.1562
267956,0.0839,-0.9733,-0.1899
268021,-0.0310,-0.9498,-0.2410
268039,-0.0482,-0.9475,-0.2498
268061,-0.0696,-0.9468,-0.2568
268106,-0.1217,-0.9545,-0.2671
268123,-0.1351,-0.9600,-0.2668
268140,-0.1470,-0.9664,-0.2645
268162,-0.1571,-0.9736,-0.2603
268200,-0.1733,-0.9893,-0.2457
268223,-0.1859,-1.0043,-0.2230
268240,-0.1915,-1.0107,-0.2086
268262,-0.1971,-1.0164,-0.1921
268284,-0.2031,-1.0206,-0.1737
268302,-0.2159,-1.0255,-0.1306
268324,-0.2227,-1.0259,-0.1062
268346,-0.2291,-1.0245,-0.0802
268384,-0.2439,-1.0094,0.0043
268416,-0.2458,-0.9692,0.0613
268434,-0.2424,-0.9778,0.0885
268456,-0.2365,-0.9648,0.1141
268474,-0.2274,-0.9513,0.1378
268498,-0.2155,-0.9379,0.1593
268521,-0.1831,-0.9128,0.1946
268543,-0.1637,-0.9021,0.2083
268576,-0.1211,-0.8853,0.2277
268599,-0.0776,-0.8754,0.2374
268618,-0.0570,-0.8730,0.2391
268640,-0.0377,-0.8723,0.2390
268662,-0.0200,-0.8730,0.2371
268679,-0.0042,-0.8751,0.2338
268719,0.0323,-0.8894,0.2167
268743,0.0414,-0.8970,0.2092
268759,0.0490,-0.9060,0.2013
268783,0.0603,-0.9276,0.1841
268828,0.0680,-0.9637,0.1567
268845,0.0685,-0.9753,0.1477
268879,0.0674,-0.9960,0.1306
268902,0.0659,-1.0045,0.1228
268924,0.0641,-1.0118,0.1157
268944,0.0597,-1.0221,0.1036
268962,0.0571,-1.0251,0.0990
268984,0.0547,-1.0267,0.0952
269075,0.0425,-1.0133,0.0924
269092,0.0411,-1.0085,0.0947
269114,0.0400,-1.0033,0.0975
269136,0.0393,-0.9979,0.1006
269153,0.0387,-0.9926,0.1040
269170,0.0383,-0.9872,0.1074
269193,0.0383,-0.9772,0.1139
269230,0.0389,-0.9686,0.1194
269251,0.0394,-0.9650,0.1216
269274,0.0406,-0.9592,0.1245
269296,0.0414,-0.9572,0.1252
269330,0.0428,-0.9545,0.1255
269352,0.0435,-0.9537,0.1250
269369,0.0442,-0.9534,0.1241
269392,0.0454,-0.9537,0.1217
269422,0.0463,-0.9552,0.1185
269444,0.0466,-0.9562,0.1168
269468,0.0469,-0.9573,0.1152
269491,0.0472,-0.9595,0.1121
269513,0.0472,-0.9607,0.1106
269530,0.0474,-0.9618,0.1094
269553,0.0472,-0.9637,0.1074
269570,0.0471,-0.9646,0.1067
269614,0.0468,-0.9661,0.1057
269649,0.0464,-0.9669,0.1053
269670,0.0460,-0.9674,0.1057
269692,0.0458,-0.9674,0.1061
269714,0.0457,-0.9674,0.1064
269731,0.0455,-0.9673,0.1071
269753,0.0453,-0.9668,0.1082
269773,0.0452,-0.9666,0.1088
269810,0.0450,-0.9659,0.1097
269833,0.0449,-0.9653,0.1104
269854,0.0449,-0.9650,0.1106
269876,0.0449,-0.9647,0.1107
269899,0.0450,-0.9644,0.1107
269916,0.0450,-0.9641,0.1107
269947,0.0450,-0.9639,0.1105
269970,0.0452,-0.9637,0.1104
270032,0.0453,-0.9636,0.1096
270049,0.0453,-0.9637,0.1095
270071,0.0453,-0.9637,0.1094
270093,0.0453,-0.9639,0.1091
270110,0.0453,-0.9639,0.1090
270133,0.0453,-0.9641,0.1086
270155,0.0453,-0.9641,0.1085
270172,0.0453,-0.9642,0.1084
270192,0.0453,-0.9644,0.1084
270215,0.0452,-0.9645,0.1083
270275,0.0452,-0.9646,0.1084
270299,0.0452,-0.9646,0.1089
270321,0.0452,-0.9646,0.1093
270344,0.0452,-0.9644,0.1110
270365,0.0452,-0.9642,0.1122
270389,0.0452,-0.9640,0.1140
270412,0.0452,-0.9633,0.1191
270449,0.0453,-0.9620,0.1263
270471,0.0453,-0.9614,0.1310
270496,0.0453,-0.9597,0.1421
270518,0.0453,-0.9586,0.1489
270560,0.0452,-0.9551,0.1744
270577,0.0452,-0.9537,0.1847
270594,0.0452,-0.9524,0.1957
270616,0.0450,-0.9509,0.2074
270654,0.0449,-0.9481,0.2449
270677,0.0447,-0.9456,0.2576
270694,0.0444,-0.9443,0.2699
270712,0.0443,-0.9434,0.2816
270734,0.0441,-0.9425,0.2927
270761,0.0435,-0.9413,0.3116
270782,0.0430,-0.9408,0.3193
270800,0.0426,-0.9404,0.3256
270845,0.0410,-0.9401,0.3347
270897,0.0397,-0.9408,0.3271
270917,0.0394,-0.9413,0.3204
270940,0.0389,-0.9426,0.3003
270962,0.0387,-0.9436,0.2870
270979,0.0386,-0.9448,0.2715
271005,0.0383,-0.9480,0.2350
271027,0.0382,-0.9498,0.2145
271085,0.0385,-0.9592,0.1244
271102,0.0387,-0.9619,0.1017
271121,0.0389,-0.9645,0.0795
271143,0.0393,-0.9670,0.0582
271185,0.0409,-0.9744,0.0024
271202,0.0415,-0.9764,-0.0128
271219,0.0421,-0.9784,-0.0264
271241,0.0427,-0.9801,-0.0381
271279,0.0438,-0.9829,-0.0559
271301,0.0448,-0.9849,-0.0665
271325,0.0452,-0.9855,-0.0696
271348,0.0455,-0.9862,-0.0714
271367,0.0457,-0.9863,-0.0704
271391,0.0458,-0.9862,-0.0684
271416,0.0457,-0.9855,-0.0610
271438,0.0455,-0.9849,-0.0557
271476,0.0453,-0.9830,-0.0409
271508,0.0449,-0.9803,-0.0201
271525,0.0447,-0.9786,-0.0072
271548,0.0443,-0.9749,0.0234
271570,0.0442,-0.9727,0.0410
271590,0.0439,-0.9703,0.0598
271613,0.0438,-0.9655,0.1003
271630,0.0437,-0.9630,0.1215
271667,0.0439,-0.9581,0.1638
271689,0.0442,-0.9557,0.1843
271714,0.0447,-0.9514,0.2224
271736,0.0450,-0.9495,0.2394
271759,0.0457,-0.9463,0.2679
271778,0.0459,-0.9451,0.2792
271809,0.0461,-0.9434,0.2948
271826,0.0461,-0.9430,0.2991
271863,0.0460,-0.9429,0.3004
271883,0.0459,-0.9434,0.2975
271908,0.0457,-0.9449,0.2849
271930,0.0455,-0.9462,0.2754
271952,0.0455,-0.9475,0.2637
271969,0.0454,-0.9491,0.2501
271988,0.0453,-0.9528,0.2179
272010,0.0453,-0.9547,0.1996
272031,0.0452,-0.9569,0.1803
272091,0.0447,-0.9657,0.0983
272126,0.0446,-0.9700,0.0585
272143,0.0446,-0.9720,0.0399
272165,0.0446,-0.9740,0.0226
272188,0.0449,-0.9777,-0.0079
272205,0.0450,-0.9792,-0.0210
272229,0.0453,-0.9807,-0.0323
272252,0.0459,-0.9830,-0.0502
272294,0.0466,-0.9844,-0.0615
272315,0.0469,-0.9847,-0.0651
272332,0.0471,-0.9850,-0.0673
272355,0.0474,-0.9849,-0.0681
272377,0.0474,-0.9846,-0.0670
272423,0.0472,-0.9833,-0.0588
272440,0.0471,-0.9828,-0.0544
272471,0.0468,-0.9813,-0.0432
272493,0.0466,-0.9803,-0.0360
272518,0.0464,-0.9781,-0.0182
272540,0.0464,-0.9769,-0.0074
272562,0.0463,-0.9756,0.0048
272579,0.0461,-0.9741,0.0183
272602,0.0461,-0.9708,0.0491
272624,0.0461,-0.9691,0.0662
272664,0.0465,-0.9633,0.1223
272686,0.0466,-0.9612,0.1418
272724,0.0471,-0.9570,0.1804
272741,0.0472,-0.9550,0.1990
272764,0.0475,-0.9510,0.2325
272786,0.0475,-0.9493,0.2471
272808,0.0474,-0.9478,0.2596
272829,0.0468,-0.9456,0.2780
272848,0.0464,-0.9449,0.2834
272882,0.0455,-0.9446,0.2864
272911,0.0446,-0.9454,0.2783
272929,0.0441,-0.9463,0.2703
272952,0.0437,-0.9475,0.2598
272974,0.0433,-0.9490,0.2469
272991,0.0431,-0.9506,0.2319
273033,0.0427,-0.9565,0.1771
273103,0.0426,-0.9655,0.0933
273120,0.0427,-0.9677,0.0725
273140,0.0430,-0.9718,0.0337
273162,0.0431,-0.9738,0.0160
273183,0.0433,-0.9755,-0.0002
273205,0.0436,-0.9771,-0.0149
273227,0.0441,-0.9797,-0.0388
273275,0.0452,-0.9827,-0.0614
273292,0.0455,-0.9833,-0.0656
273331,0.0463,-0.9840,-0.0693
273348,0.0465,-0.9841,-0.0691
273371,0.0472,-0.9840,-0.0646
273393,0.0476,-0.9838,-0.0602
273415,0.0479,-0.9832,-0.0542
273438,0.0483,-0.9814,-0.0371
273455,0.0486,-0.9801,-0.0259
273486,0.0488,-0.9768,0.0020
273505,0.0488,-0.9749,0.0184
273527,0.0487,-0.9728,0.0365
273550,0.0486,-0.9705,0.0558
273571,0.0482,-0.9656,0.0973
273594,0.0479,-0.9630,0.1188
273633,0.0471,-0.9580,0.1617
273651,0.0464,-0.9532,0.2026
273682,0.0461,-0.9512,0.2214
273705,0.0457,-0.9480,0.2544
273722,0.0454,-0.9468,0.2681
273740,0.0454,-0.9459,0.2795
273762,0.0453,-0.9454,0.2887
273787,0.0449,-0.9456,0.2994
273807,0.0447,-0.9460,0.3009
273830,0.0444,-0.9469,0.2994
273878,0.0433,-0.9507,0.2789
273894,0.0430,-0.9523,0.2670
273940,0.0424,-0.9579,0.2183
273960,0.0424,-0.9598,0.1989
273983,0.0425,-0.9637,0.1569
274005,0.0426,-0.9657,0.1351
274022,0.0428,-0.9675,0.1133
274044,0.0431,-0.9694,0.0918
274063,0.0437,-0.9727,0.0505
274128,0.0452,-0.9779,-0.0176
274145,0.0457,-0.9790,-0.0306
274163,0.0461,-0.9799,-0.0420
274185,0.0466,-0.9806,-0.0515
274209,0.0471,-0.9812,-0.0592
274240,0.0483,-0.9819,-0.0691
274265,0.0494,-0.9822,-0.0717
274296,0.0504,-0.9816,-0.0664
274317,0.0509,-0.9810,-0.0605
274341,0.0513,-0.9802,-0.0524
274364,0.0518,-0.9779,-0.0293
274386,0.0519,-0.9766,-0.0145
274403,0.0519,-0.9749,0.0022
274422,0.0518,-0.9730,0.0208
274445,0.0513,-0.9689,0.0615
274462,0.0508,-0.9668,0.0830
274479,0.0502,-0.9645,0.1047
274501,0.0496,-0.9623,0.1263
274569,0.0469,-0.9543,0.2034
274591,0.0459,-0.9513,0.2327
274614,0.0455,-0.9501,0.2443
274634,0.0454,-0.9490,0.2539
274655,0.0453,-0.9476,0.2670
274672,0.0454,-0.9473,0.2705
274694,0.0457,-0.9471,0.2721
274739,0.0464,-0.9482,0.2650
274761,0.0468,-0.9489,0.2588
274785,0.0470,-0.9497,0.2505
274808,0.0477,-0.9517,0.2285
274856,0.0492,-0.9556,0.1837
274875,0.0497,-0.9570,0.1664
274897,0.0503,-0.9587,0.1482
274923,0.0513,-0.9622,0.1107
274963,0.0522,-0.9658,0.0732
274986,0.0529,-0.9694,0.0378
275003,0.0531,-0.9711,0.0215
275025,0.0532,-0.9727,0.0062
275047,0.0533,-0.9742,-0.0078
275068,0.0536,-0.9769,-0.0316
275086,0.0536,-0.9780,-0.0413
275108,0.0537,-0.9791,-0.0493
275167,0.0541,-0.9822,-0.0670
275208,0.0542,-0.9829,-0.0681
275225,0.0543,-0.9832,-0.0671
275248,0.0543,-0.9833,-0.0624
275270,0.0543,-0.9832,-0.0587
275303,0.0543,-0.9825,-0.0486
275324,0.0543,-0.9819,-0.0417
275349,0.0543,-0.9802,-0.0243
275371,0.0542,-0.9790,-0.0133
275393,0.0541,-0.9775,-0.0009
275410,0.0538,-0.9760,0.0133
275433,0.0533,-0.9719,0.0460
275454,0.0530,-0.9696,0.0645
275471,0.0525,-0.9673,0.0837
275504,0.0516,-0.9622,0.1244
275549,0.0502,-0.9546,0.1853
275573,0.0497,-0.9523,0.2042
275596,0.0488,-0.9482,0.2382
275618,0.0486,-0.9467,0.2526
275639,0.0482,-0.9452,0.2649
275656,0.0481,-0.9441,0.2750
275679,0.0477,-0.9429,0.2874
275696,0.0476,-0.9427,0.2891
275741,0.0472,-0.9445,0.2758
275764,0.0471,-0.9458,0.2653
275781,0.0472,-0.9474,0.2520
275812,0.0475,-0.9513,0.2183
275834,0.0477,-0.9536,0.1986
275850,0.0480,-0.9562,0.1775
275874,0.0488,-0.9614,0.1328
275894,0.0493,-0.9641,0.1101
275931,0.0502,-0.9694,0.0658
275953,0.0507,-0.9719,0.0449
275978,0.0514,-0.9764,0.0067
276000,0.0516,-0.9785,-0.0100
276023,0.0521,-0.9818,-0.0383
276040,0.0522,-0.9832,-0.0498
276062,0.0524,-0.9841,-0.0593
276084,0.0525,-0.9850,-0.0670
276118,0.0526,-0.9860,-0.0770
276180,0.0527,-0.9857,-0.0786
276197,0.0529,-0.9854,-0.0758
276220,0.0530,-0.9841,-0.0668
276242,0.0531,-0.9833,-0.0604
276259,0.0532,-0.9823,-0.0530
276281,0.0533,-0.9812,-0.0441
276304,0.0536,-0.9783,-0.0217
276321,0.0536,-0.9766,-0.0082
276338,0.0537,-0.9747,0.0071
276360,0.0536,-0.9727,0.0239
276398,0.0535,-0.9683,0.0620
276432,0.0531,-0.9634,0.1277
276450,0.0526,-0.9584,0.1509
276472,0.0522,-0.9557,0.1742
276491,0.0518,-0.9531,0.1974
276508,0.0513,-0.9507,0.2201
276533,0.0503,-0.9459,0.2628
276557,0.0498,-0.9438,0.2821
276595,0.0488,-0.9406,0.3149
276616,0.0481,-0.9385,0.3373
276638,0.0479,-0.9381,0.3438
276661,0.0476,-0.9381,0.3467
276684,0.0474,-0.9392,0.3412
276701,0.0472,-0.9403,0.3328
276732,0.0472,-0.9436,0.3053
276749,0.0472,-0.9458,0.2869
276786,0.0474,-0.9508,0.2422
276808,0.0475,-0.9536,0.2170
276829,0.0482,-0.9594,0.1638
276851,0.0486,-0.9623,0.1366
276871,0.0491,-0.9651,0.1097
276889,0.0497,-0.9678,0.0836
276912,0.0507,-0.9728,0.0349
276937,0.0511,-0.9750,0.0131
276983,0.0524,-0.9802,-0.0405
277003,0.0527,-0.9814,-0.0541
277037,0.0532,-0.9834,-0.0743
277054,0.0535,-0.9841,-0.0813
277077,0.0538,-0.9847,-0.0892
277099,0.0541,-0.9849,-0.0905
277116,0.0542,-0.9849,-0.0901
277138,0.0544,-0.9847,-0.0884
277156,0.0547,-0.9844,-0.0853
277222,0.0555,-0.9827,-0.0653
277244,0.0558,-0.9816,-0.0524
277266,0.0559,-0.9811,-0.0453
277288,0.0559,-0.9803,-0.0377
277306,0.0557,-0.9789,-0.0201
277337,0.0555,-0.9779,-0.0099
277356,0.0549,-0.9756,0.0149
277404,0.0540,-0.9698,0.0652
277426,0.0527,-0.9675,0.0858
277443,0.0521,-0.9650,0.1083
277465,0.0514,-0.9623,0.1323
277488,0.0502,-0.9567,0.1840
277509,0.0496,-0.9537,0.2108
277531,0.0490,-0.9507,0.2377
277556,0.0480,-0.9441,0.2898
277587,0.0472,-0.9379,0.3354
277606,0.0470,-0.9352,0.3541
277640,0.0465,-0.9313,0.3799
277664,0.0463,-0.9302,0.3861
277687,0.0459,-0.9298,0.3837
277711,0.0459,-0.9307,0.3751
277734,0.0464,-0.9342,0.3441
277761,0.0469,-0.9368,0.3225
277800,0.0491,-0.9469,0.2401
277822,0.0499,-0.9508,0.2089
277839,0.0507,-0.9547,0.1768
277861,0.0514,-0.9586,0.1445
277884,0.0525,-0.9663,0.0819
277901,0.0529,-0.9698,0.0525
277942,0.0533,-0.9763,-0.0001
277959,0.0533,-0.9791,-0.0228
277990,0.0533,-0.9836,-0.0601
278010,0.0532,-0.9854,-0.0743
278037,0.0530,-0.9878,-0.0945
278059,0.0529,-0.9884,-0.1006
278082,0.0524,-0.9890,-0.1057
278099,0.0521,-0.9889,-0.1052
278117,0.0519,-0.9885,-0.1031
278139,0.0515,-0.9879,-0.0996
278215,0.0499,-0.9841,-0.0702
278246,0.0494,-0.9824,-0.0571
278263,0.0492,-0.9817,-0.0510
278285,0.0491,-0.9811,-0.0453
278307,0.0490,-0.9806,-0.0399
278324,0.0488,-0.9801,-0.0353
278347,0.0488,-0.9794,-0.0276
278371,0.0490,-0.9791,-0.0245
278402,0.0492,-0.9789,-0.0203
278423,0.0493,-0.9788,-0.0189
278447,0.0498,-0.9788,-0.0177
278469,0.0499,-0.9788,-0.0176
278492,0.0504,-0.9789,-0.0184
278515,0.0507,-0.9790,-0.0190
278553,0.0510,-0.9791,-0.0201
278568,0.0513,-0.9791,-0.0201
278602,0.0515,-0.9790,-0.0188
278623,0.0516,-0.9785,-0.0146
278645,0.0518,-0.9780,-0.0115
278665,0.0518,-0.9775,-0.0074
278687,0.0518,-0.9769,-0.0027
278712,0.0518,-0.9756,0.0089
278734,0.0516,-0.9747,0.0155
278757,0.0515,-0.9730,0.0300
278774,0.0515,-0.9722,0.0377
278791,0.0514,-0.9712,0.0454
278813,0.0513,-0.9703,0.0531
278851,0.0511,-0.9686,0.0679
278892,0.0509,-0.9664,0.0870
278909,0.0509,-0.9659,0.0923
278930,0.0508,-0.9655,0.0968
278951,0.0508,-0.9650,0.1007
278972,0.0508,-0.9644,0.1063
278992,0.0508,-0.9642,0.1080
279014,0.0508,-0.9641,0.1093
279057,0.0507,-0.9641,0.1095
279079,0.0508,-0.9642,0.1086
279098,0.0508,-0.9644,0.1075
279121,0.0508,-0.9647,0.1046
279143,0.0508,-0.9648,0.1029
279160,0.0508,-0.9651,0.1011
279191,0.0509,-0.9655,0.0975
279209,0.0509,-0.9657,0.0958
279275,0.0510,-0.9662,0.0903
279292,0.0510,-0.9663,0.0895
279315,0.0510,-0.9664,0.0880
279337,0.0510,-0.9664,0.0876
279354,0.0511,-0.9664,0.0874
279376,0.0511,-0.9664,0.0873
279394,0.0511,-0.9664,0.0873
279411,0.0511,-0.9663,0.0874
279442,0.0511,-0.9663,0.0880
279464,0.0513,-0.9662,0.0887
279498,0.0513,-0.9661,0.0897
279515,0.0514,-0.9661,0.0902
279535,0.0514,-0.9659,0.0907
279557,0.0514,-0.9659,0.0912
279579,0.0514,-0.9659,0.0920
279601,0.0515,-0.9659,0.0923
279616,0.0515,-0.9659,0.0927
279661,0.0515,-0.9659,0.0933
279681,0.0515,-0.9659,0.0934
279704,0.0515,-0.9659,0.0934
279727,0.0515,-0.9659,0.0934
279749,0.0515,-0.9661,0.0934
279766,0.0515,-0.9661,0.0933
279797,0.0515,-0.9661,0.0930
279814,0.0515,-0.9661,0.0929
279851,0.0514,-0.9661,0.0927
279869,0.0514,-0.9661,0.0924
279894,0.0514,-0.9662,0.0922
279916,0.0514,-0.9662,0.0920
279937,0.0513,-0.9662,0.0919
279962,0.0513,-0.9662,0.0917
279984,0.0513,-0.9662,0.0917
280007,0.0511,-0.9661,0.0916
280040,0.0511,-0.9661,0.0914
280059,0.0511,-0.9661,0.0914
280097,0.0511,-0.9659,0.0914
280114,0.0511,-0.9659,0.0914
280136,0.0510,-0.9659,0.0914
280159,0.0510,-0.9659,0.0916
280179,0.0510,-0.9659,0.0917
280201,0.0510,-0.9659,0.0917
280220,0.0510,-0.9658,0.0918
280279,0.0511,-0.9659,0.0919
280299,0.0511,-0.9659,0.0919
280322,0.0511,-0.9659,0.0920
280344,0.0511,-0.9659,0.0920
280361,0.0511,-0.9659,0.0920
280403,0.0513,-0.9661,0.0920
280420,0.0513,-0.9661,0.0920
280451,0.0514,-0.9661,0.0920
280472,0.0514,-0.9661,0.0920
280496,0.0514,-0.9661,0.0920
280519,0.0514,-0.9661,0.0920
280541,0.0514,-0.9661,0.0920
280562,0.0514,-0.9661,0.0919
280585,0.0514,-0.9659,0.0919
280607,0.0514,-0.9659,0.0919
280648,0.0514,-0.9659,0.0919
280670,0.0514,-0.9659,0.0919
280705,0.0514,-0.9658,0.0919
280722,0.0513,-0.9658,0.0919
280744,0.0513,-0.9658,0.0919
280767,0.0513,-0.9657,0.0918
280784,0.0513,-0.9657,0.0917
280806,0.0513,-0.9657,0.0914
280831,0.0513,-0.9658,0.0909
280862,0.0513,-0.9659,0.0906
280884,0.0513,-0.9661,0.0903
280901,0.0513,-0.9661,0.0903
280923,0.0513,-0.9661,0.0903
280946,0.0513,-0.9662,0.0905
280963,0.0513,-0.9662,0.0907
281006,0.0513,-0.9663,0.0911
281029,0.0511,-0.9663,0.0916
281062,0.0511,-0.9663,0.0922
281083,0.0511,-0.9663,0.0924
281107,0.0511,-0.9663,0.0927
281130,0.0511,-0.9662,0.0930
281152,0.0511,-0.9661,0.0933
281169,0.0510,-0.9659,0.0934
281192,0.0510,-0.9656,0.0938
281214,0.0509,-0.9653,0.0939
281231,0.0508,-0.9651,0.0939
281301,0.0500,-0.9641,0.0927
281338,0.0494,-0.9639,0.0912
281361,0.0491,-0.9639,0.0892
281378,0.0490,-0.9641,0.0881
281400,0.0490,-0.9644,0.0870
281423,0.0490,-0.9652,0.0845
281440,0.0490,-0.9657,0.0831
281461,0.0491,-0.9663,0.0818
281484,0.0491,-0.9668,0.0804
281522,0.0494,-0.9685,0.0767
281540,0.0494,-0.9689,0.0756
281564,0.0496,-0.9694,0.0745
281583,0.0497,-0.9697,0.0736
281606,0.0497,-0.9702,0.0720
281637,0.0496,-0.9705,0.0709
281656,0.0494,-0.9705,0.0704
281678,0.0493,-0.9703,0.0702
281700,0.0491,-0.9702,0.0699
281731,0.0487,-0.9698,0.0697
281754,0.0482,-0.9695,0.0697
281771,0.0480,-0.9692,0.0698
281793,0.0477,-0.9690,0.0699
281815,0.0476,-0.9688,0.0701
281832,0.0475,-0.9686,0.0702
281857,0.0472,-0.9684,0.0706
281879,0.0471,-0.9683,0.0707
281917,0.0471,-0.9680,0.0710
281951,0.0471,-0.9680,0.0712
281975,0.0471,-0.9680,0.0713
281997,0.0472,-0.9680,0.0713
282016,0.0474,-0.9680,0.0713
282033,0.0474,-0.9680,0.0713
282055,0.0475,-0.9680,0.0713
282072,0.0476,-0.9680,0.0712
282114,0.0480,-0.9678,0.0709
282136,0.0481,-0.9677,0.0709
282160,0.0482,-0.9675,0.0708
282183,0.0482,-0.9675,0.0707
282205,0.0482,-0.9674,0.0706
282222,0.0482,-0.9674,0.0704
282253,0.0480,-0.9675,0.0703
282271,0.0479,-0.9675,0.0703
282340,0.0472,-0.9677,0.0698
282358,0.0471,-0.9677,0.0697
282381,0.0469,-0.9677,0.0695
282403,0.0468,-0.9677,0.0692
282420,0.0468,-0.9677,0.0691
282443,0.0466,-0.9678,0.0686
282459,0.0466,-0.9679,0.0684
282511,0.0466,-0.9684,0.0676
282557,0.0465,-1.0000,0.0673
282575,0.0464,-0.9690,0.0671
282595,0.0463,-0.9691,0.0670
282617,0.0463,-0.9690,0.0670
282634,0.0461,-0.9688,0.0670
282657,0.0460,-0.9678,0.0669
282681,0.0459,-0.9673,0.0669
282712,0.0457,-0.9664,0.0668
282734,0.0455,-0.9661,0.0665
282751,0.0455,-0.9659,0.0664
282774,0.0455,-0.9661,0.0658
282796,0.0455,-0.9664,0.0656
282820,0.0457,-0.9668,0.0651
282863,0.0461,-0.9684,0.0636
282880,0.0461,-0.9690,0.0630
282897,0.0463,-0.9695,0.0624
282915,0.0461,-0.9701,0.0618
282938,0.0459,-0.9711,0.0607
282978,0.0455,-0.9719,0.0599
283001,0.0452,-0.9722,0.0597
283021,0.0446,-0.9723,0.0593
283043,0.0443,-0.9723,0.0593
283065,0.0441,-0.9722,0.0592
283082,0.0439,-0.9720,0.0591
283101,0.0439,-0.9717,0.0586
283123,0.0441,-0.9716,0.0583
283183,0.0449,-0.9709,0.0566
283208,0.0452,-0.9708,0.0562
283230,0.0453,-0.9706,0.0558
