timestamp,acc_x,acc_y,acc_z
2476621,0.0674,-0.4207,-0.8939
2476719,0.0664,-0.4183,-0.8997
2476729,0.0663,-0.4181,-0.9001
2476745,0.0662,-0.4180,-0.9009
2476761,0.0660,-0.4178,-0.9014
2476777,0.0660,-0.4180,-0.9015
2476795,0.0660,-0.4182,-0.9014
2476811,0.0660,-0.4185,-0.9010
2476831,0.0663,-0.4191,-0.8997
2476843,0.0664,-0.4194,-0.8990
2476900,0.0675,-0.4222,-0.8933
2476916,0.0675,-0.4230,-0.8917
2476926,0.0674,-0.4232,-0.8910
2476959,0.0665,-0.4227,-0.8906
2476975,0.0663,-0.4224,-0.8912
2476993,0.0657,-0.4203,-0.8943
2477009,0.0654,-0.4186,-0.8973
2477021,0.0653,-0.4177,-0.8990
2477037,0.0651,-0.4158,-0.9026
2477048,0.0651,-0.4149,-0.9043
2477077,0.0649,-0.4121,-0.9104
2477093,0.0652,-0.4114,-0.9124
2477109,0.0656,-0.4114,-0.9136
2477119,0.0659,-0.4117,-0.9139
2477135,0.0668,-0.4132,-0.9141
2477150,0.0681,-0.4156,-0.9136
2477166,0.0697,-0.4191,-0.9122
2477184,0.0714,-0.4232,-0.9098
2477200,0.0729,-0.4283,-0.9058
2477216,0.0741,-0.4342,-0.8994
2477232,0.0753,-0.4404,-0.8909
2477268,0.0767,-0.4524,-0.8695
2477298,0.0740,-0.4576,-0.8505
2477309,0.0725,-0.4575,-0.8469
2477325,0.0684,-0.4556,-0.8419
2477343,0.0631,-0.4523,-0.8406
2477359,0.0570,-0.4484,-0.8418
2477375,0.0503,-0.4437,-0.8468
2477391,0.0436,-0.4377,-0.8546
2477409,0.0345,-0.4241,-0.8708
2477425,0.0321,-0.4113,-0.8844
2477441,0.0286,-0.4038,-0.9001
2477457,0.0272,-0.3868,-0.9088
2477475,0.0299,-0.3585,-0.9368
2477485,0.0322,-0.3486,-0.9464
2477501,0.0391,-0.3295,-0.9653
2477517,0.0486,-0.3115,-0.9829
2477533,0.0603,-0.2960,-0.9983
2477587,0.0959,-0.2670,-1.0276
2477598,0.1049,-0.2634,-1.0304
2477608,0.1084,-0.2628,-1.0303
2477624,0.1136,-0.2645,-1.0267
2477637,0.1152,-0.2667,-1.0233
2477653,0.1165,-0.2743,-1.0134
2477671,0.1138,-0.2927,-0.9916
2477689,0.1100,-0.3092,-0.9738
2477705,0.1055,-0.3280,-0.9543
2477721,0.1006,-0.3477,-0.9349
2477771,0.0857,-0.3984,-0.8904
2477787,0.0814,-0.4091,-0.8839
2477805,0.0778,-0.4158,-0.8827
2477821,0.0745,-0.4182,-0.8866
2477837,0.0714,-0.4171,-0.8947
2477874,0.0658,-0.4081,-0.9176
2477884,0.0634,-0.4025,-0.9296
2477895,0.0621,-0.3998,-0.9352
2477911,0.0598,-0.3948,-0.9456
2477927,0.0577,-0.3895,-0.9542
2477980,0.0566,-0.3716,-0.9636
2477991,0.0579,-0.3666,-0.9598
2478009,0.0594,-0.3634,-0.9523
2478025,0.0613,-0.3627,-0.9412
2478041,0.0634,-0.3646,-0.9274
2478057,0.0657,-0.3690,-0.9117
2478077,0.0679,-0.3751,-0.8956
2478085,0.0687,-0.3785,-0.8877
2478095,0.0696,-0.3818,-0.8799
2478111,0.0707,-0.3883,-0.8658
2478127,0.0709,-0.3940,-0.8542
2478158,0.0702,-0.4050,-0.8402
2478190,0.0704,-0.4225,-0.8345
2478200,0.0713,-0.4296,-0.8333
2478216,0.0745,-0.4484,-0.8297
2478231,0.0796,-0.4744,-0.8241
2478242,0.0829,-0.4900,-0.8203
2478258,0.0912,-0.5265,-0.8103
2478268,0.1017,-0.5685,-0.7969
2478283,0.1080,-0.5912,-0.7892
2478301,0.1310,-0.6627,-0.7637
2478317,0.1483,-0.7097,-0.7473
2478351,0.1793,-0.7820,-0.7239
2478367,0.1906,-0.7987,-0.7185
2478383,0.1993,-0.8002,-0.7174
2478401,0.2064,-0.7872,-0.7203
2478417,0.2126,-0.7610,-0.7274
2478433,0.2190,-0.7219,-0.7397
2478449,0.2251,-0.6694,-0.7592
2478467,0.2300,-0.6029,-0.7875
2478500,0.2327,-0.4335,-0.8708
2478510,0.2321,-0.3865,-0.8956
2478521,0.2305,-0.2917,-0.9473
2478548,0.2284,-0.1581,-1.0220
2478564,0.2273,-0.0803,-1.0648
2478580,0.2256,-0.0144,-1.0995
2478598,0.2227,0.0383,-1.1243
2478614,0.2189,0.0771,-1.1385
2478630,0.2146,0.1023,-1.1423
2478642,0.2123,0.1100,-1.1406
2478660,0.2050,0.1145,-1.1232
2478676,0.1986,0.1052,-1.1046
2478692,0.1947,0.0979,-1.0839
2478708,0.1853,0.0803,-1.0736
2478719,0.1737,0.0610,-1.0551
2478758,0.1470,0.0175,-1.0288
2478774,0.1344,0.0023,-1.0267
2478810,0.1130,-0.0292,-1.0303
2478826,0.1084,-0.0470,-1.0327
2478845,0.1051,-0.0663,-1.0338
2478854,0.1038,-0.0764,-1.0337
2478870,0.1014,-0.0975,-1.0316
2478894,0.0985,-0.1307,-1.0245
2478910,0.0972,-0.1536,-1.0178
2478921,0.0968,-0.1764,-1.0103
2478937,0.0974,-0.1877,-1.0063
2478988,0.1090,-0.2556,-0.9828
2479004,0.1130,-0.2693,-0.9777
2479022,0.1160,-0.2795,-0.9729
2479038,0.1176,-0.2861,-0.9684
2479054,0.1174,-0.2891,-0.9637
2479070,0.1160,-0.2881,-0.9594
2479112,0.1099,-0.2709,-0.9515
2479127,0.1086,-0.2599,-0.9515
2479141,0.1088,-0.2539,-0.9525
2479173,0.1139,-0.2295,-0.9624
2479189,0.1195,-0.2180,-0.9702
2479204,0.1272,-0.2080,-0.9791
2479214,0.1316,-0.2036,-0.9839
2479230,0.1411,-0.1958,-0.9935
2479245,0.1503,-0.1886,-1.0029
2479261,0.1582,-0.1813,-1.0116
2479279,0.1641,-0.1735,-1.0186
2479295,0.1677,-0.1654,-1.0236
2479311,0.1693,-0.1581,-1.0265
2479329,0.1692,-0.1521,-1.0276
2479363,0.1652,-0.1472,-1.0219
2479378,0.1639,-0.1484,-1.0194
2479428,0.1583,-0.1804,-0.9922
2479438,0.1567,-0.1879,-0.9877
2479454,0.1552,-0.2039,-0.9789
2479470,0.1536,-0.2211,-0.9707
2479481,0.1528,-0.2300,-0.9670
2479498,0.1514,-0.2479,-0.9607
2479513,0.1497,-0.2655,-0.9557
2479531,0.1478,-0.2820,-0.9523
2479547,0.1461,-0.2974,-0.9498
2479581,0.1440,-0.3250,-0.9463
2479597,0.1438,-0.3374,-0.9441
2479613,0.1438,-0.3488,-0.9410
2479631,0.1436,-0.3588,-0.9370
2479647,0.1427,-0.3674,-0.9318
2479659,0.1412,-0.3749,-0.9250
2479675,0.1392,-0.3815,-0.9169
2479693,0.1370,-0.3876,-0.9076
2479728,0.1338,-0.3997,-0.8899
2479738,0.1337,-0.4028,-0.8865
2479785,0.1470,-0.4272,-0.8807
2479801,0.1556,-0.4362,-0.8845
2479819,0.1638,-0.4430,-0.8906
2479835,0.1699,-0.4463,-0.8978
2479846,0.1727,-0.4449,-0.9054
2479862,0.1724,-0.4391,-0.9126
2479879,0.1688,-0.4294,-0.9188
2479895,0.1624,-0.4167,-0.9238
2479910,0.1581,-0.4094,-0.9258
2479926,0.1478,-0.3938,-0.9287
2479982,0.1051,-0.3479,-0.9255
2479998,0.0939,-0.3430,-0.9210
2480033,0.0763,-0.3511,-0.9048
2480049,0.0708,-0.3556,-0.9011
2480065,0.0679,-0.3662,-0.8944
2480075,0.0673,-0.3777,-0.8894
2480089,0.0677,-0.3832,-0.8878
2480104,0.0697,-0.3929,-0.8868
2480120,0.0723,-0.3997,-0.8887
2480137,0.0748,-0.4030,-0.8927
2480150,0.0770,-0.4027,-0.8981
2480163,0.0779,-0.4014,-0.9010
2480179,0.0795,-0.3971,-0.9072
2480195,0.0804,-0.3910,-0.9137
2480222,0.0785,-0.3745,-0.9255
2480237,0.0773,-0.3700,-0.9277
2480253,0.0742,-0.3612,-0.9309
2480270,0.0712,-0.3533,-0.9323
2480286,0.0685,-0.3462,-0.9326
2480302,0.0662,-0.3398,-0.9330
2480338,0.0627,-0.3251,-0.9374
2480367,0.0643,-0.3173,-0.9425
2480383,0.0668,-0.3131,-0.9473
2480399,0.0698,-0.3104,-0.9530
2480412,0.0729,-0.3104,-0.9584
2480428,0.0757,-0.3140,-0.9622
2480444,0.0778,-0.3221,-0.9624
2480460,0.0787,-0.3357,-0.9580
2480470,0.0789,-0.3446,-0.9536
2480486,0.0784,-0.3671,-0.9402
2480502,0.0773,-0.3965,-0.9202
2480518,0.0767,-0.4331,-0.8929
2480536,0.0774,-0.4777,-0.8588
2480554,0.0806,-0.5297,-0.8182
2480570,0.0868,-0.5879,-0.7733
2480586,0.0958,-0.6501,-0.7266
2480620,0.1191,-0.7761,-0.6394
2480653,0.1373,-0.8823,-0.5792
2480665,0.1416,-0.9189,-0.5651
2480675,0.1431,-0.9319,-0.5626
2480691,0.1458,-0.9458,-0.5685
2480707,0.1501,-0.9434,-0.5890
2480723,0.1560,-0.9232,-0.6246
2480734,0.1591,-0.9058,-0.6478
2480744,0.1619,-0.8833,-0.6742
2480763,0.1696,-0.7841,-0.7701
2480779,0.1747,-0.6934,-0.8441
2480793,0.1774,-0.6420,-0.8829
2480861,0.1943,-0.1116,-1.1990
2480870,0.1948,-0.0583,-1.2218
2480886,0.1951,0.0363,-1.2557
2480902,0.1935,0.1124,-1.2731
2480918,0.1890,0.1682,-1.2740
2480961,0.1687,0.2186,-1.2164
2481007,0.1544,0.1276,-1.0854
2481016,0.1549,0.1012,-1.0625
2481037,0.1589,0.0436,-1.0188
2481053,0.1665,-0.0170,-0.9797
2481069,0.1763,-0.0769,-0.9469
2481080,0.1866,-0.1329,-0.9215
2481097,0.1963,-0.1824,-0.9045
2481111,0.2004,-0.2039,-0.8993
2481127,0.2069,-0.2393,-0.8950
2481142,0.2107,-0.2644,-0.8986
2481159,0.2114,-0.2797,-0.9081
2481171,0.2091,-0.2869,-0.9215
2481181,0.2070,-0.2880,-0.9291
2481197,0.2010,-0.2865,-0.9443
2481213,0.1935,-0.2819,-0.9586
2481241,0.1804,-0.2727,-0.9750
2481273,0.1638,-0.2627,-0.9836
2481290,0.1566,-0.2601,-0.9822
2481306,0.1506,-0.2593,-0.9777
2481322,0.1461,-0.2605,-0.9712
2481333,0.1447,-0.2635,-0.9642
2481349,0.1429,-0.2656,-0.9608
2481359,0.1432,-0.2708,-0.9548
2481375,0.1450,-0.2765,-0.9503
2481389,0.1464,-0.2794,-0.9489
2481405,0.1497,-0.2849,-0.9475
2481444,0.1583,-0.2944,-0.9519
2481460,0.1608,-0.2960,-0.9552
2481476,0.1624,-0.2964,-0.9581
2481486,0.1628,-0.2963,-0.9592
2481502,0.1631,-0.2955,-0.9606
2481518,0.1624,-0.2942,-0.9606
2481534,0.1608,-0.2925,-0.9591
2481579,0.1504,-0.2876,-0.9513
2481589,0.1482,-0.2869,-0.9504
2481605,0.1442,-0.2858,-0.9500
2481637,0.1384,-0.2842,-0.9546
2481653,0.1372,-0.2837,-0.9594
2481668,0.1370,-0.2836,-0.9620
2481682,0.1376,-0.2833,-0.9674
2481698,0.1395,-0.2833,-0.9720
2481714,0.1427,-0.2834,-0.9756
2481730,0.1467,-0.2836,-0.9774
2481740,0.1490,-0.2838,-0.9775
2481756,0.1537,-0.2842,-0.9762
2481772,0.1581,-0.2852,-0.9723
2481790,0.1617,-0.2871,-0.9656
2481839,0.1644,-0.3002,-0.9323
2481879,0.1583,-0.3140,-0.9034
2481889,0.1566,-0.3159,-0.8953
2481905,0.1528,-0.3185,-0.8922
2481921,0.1489,-0.3188,-0.8882
2481937,0.1445,-0.3173,-0.8873
2481955,0.1378,-0.3118,-0.8914
2481971,0.1357,-0.3075,-0.8966
2481987,0.1326,-0.3054,-0.8997
2482001,0.1309,-0.3022,-0.9062
2482055,0.1365,-0.3036,-0.9248
2482073,0.1396,-0.3064,-0.9277
2482083,0.1410,-0.3077,-0.9290
2482098,0.1433,-0.3098,-0.9308
2482114,0.1445,-0.3113,-0.9323
2482130,0.1442,-0.3123,-0.9333
2482150,0.1425,-0.3136,-0.9342
2482187,0.1316,-0.3232,-0.9342
2482205,0.1254,-0.3302,-0.9338
2482234,0.1130,-0.3490,-0.9337
2482250,0.1094,-0.3612,-0.9338
2482266,0.1085,-0.3757,-0.9338
2482276,0.1091,-0.3837,-0.9341
2482292,0.1122,-0.3999,-0.9351
2482306,0.1143,-0.4077,-0.9362
2482322,0.1193,-0.4215,-0.9397
2482333,0.1245,-0.4313,-0.9453
2482343,0.1271,-0.4344,-0.9489
2482359,0.1313,-0.4371,-0.9567
2482375,0.1338,-0.4348,-0.9652
2482391,0.1342,-0.4277,-0.9739
2482430,0.1259,-0.3943,-0.9921
2482446,0.1200,-0.3783,-0.9963
2482486,0.1066,-0.3483,-0.9977
2482496,0.0994,-0.3353,-0.9950
2482510,0.0956,-0.3295,-0.9930
2482526,0.0874,-0.3190,-0.9880
2482542,0.0787,-0.3099,-0.9819
2482560,0.0654,-0.2991,-0.9712
2482576,0.0613,-0.2935,-0.9635
2482592,0.0532,-0.2911,-0.9596
2482610,0.0419,-0.2856,-0.9484
2482652,0.0262,-0.2817,-0.9330
2482682,0.0201,-0.2816,-0.9253
2482977,0.1475,-0.7081,-0.7537
2483794,0.1859,-0.2527,-0.9757
2483847,0.2039,-0.2368,-0.9889
2483865,0.2042,-0.2286,-0.9922
2483881,0.2021,-0.2197,-0.9929
2483897,0.1980,-0.2113,-0.9907
2483913,0.1920,-0.2048,-0.9856
2483931,0.1849,-0.2010,-0.9784
2483947,0.1777,-0.2001,-0.9701
2483963,0.1710,-0.2020,-0.9615
2483978,0.1655,-0.2064,-0.9537
2483996,0.1617,-0.2133,-0.9469
2484006,0.1605,-0.2177,-0.9441
2484017,0.1602,-0.2281,-0.9395
2484033,0.1622,-0.2404,-0.9363
2484049,0.1667,-0.2535,-0.9347
2484078,0.1765,-0.2727,-0.9355
2484093,0.1841,-0.2841,-0.9376
2484143,0.2083,-0.3132,-0.9427
2484153,0.2122,-0.3181,-0.9427
2484169,0.2190,-0.3279,-0.9419
2484185,0.2245,-0.3370,-0.9403
2484201,0.2283,-0.3456,-0.9377
2484211,0.2296,-0.3538,-0.9341
2484240,0.2281,-0.3667,-0.9261
2484253,0.2220,-0.3761,-0.9192
2484269,0.2125,-0.3859,-0.9114
2484287,0.2003,-0.3959,-0.9034
2484303,0.1863,-0.4060,-0.8961
2484319,0.1711,-0.4158,-0.8905
2484330,0.1633,-0.4203,-0.8887
2484348,0.1479,-0.4285,-0.8872
2484364,0.1337,-0.4349,-0.8888
2484380,0.1215,-0.4399,-0.8928
2484396,0.1127,-0.4442,-0.8987
2484463,0.1094,-0.4567,-0.9226
2484481,0.1130,-0.4550,-0.9268
2484496,0.1166,-0.4502,-0.9308
2484512,0.1191,-0.4423,-0.9347
2484528,0.1202,-0.4313,-0.9385
2484546,0.1195,-0.4181,-0.9426
2484562,0.1169,-0.4039,-0.9434
2484578,0.1124,-0.3894,-0.9441
2484594,0.1057,-0.3751,-0.9436
2484612,0.0922,-0.3551,-0.9418
2484622,0.0872,-0.3491,-0.9410
2484633,0.0823,-0.3440,-0.9401
2484649,0.0731,-0.3359,-0.9377
2484665,0.0657,-0.3318,-0.9346
2484694,0.0566,-0.3342,-0.9261
2484709,0.0557,-0.3368,-0.9237
2484741,0.0564,-0.3519,-0.9141
2484751,0.0588,-0.3601,-0.9097
2484763,0.0603,-0.3638,-0.9080
2484779,0.0634,-0.3700,-0.9052
2484795,0.0662,-0.3743,-0.9036
2484815,0.0684,-0.3768,-0.9030
2484826,0.0696,-0.3783,-0.9025
2484842,0.0703,-0.3796,-0.9015
2484858,0.0709,-0.3823,-0.8990
2484923,0.0839,-0.4288,-0.8646
2484941,0.0912,-0.4510,-0.8505
2484952,0.0956,-0.4636,-0.8430
2484968,0.1055,-0.4910,-0.8279
2484995,0.1227,-0.5359,-0.8066
2485011,0.1354,-0.5671,-0.7950
2485047,0.1655,-0.6405,-0.7794
2485057,0.1694,-0.6522,-0.7789
2485086,0.1714,-0.6813,-0.7885
2485101,0.1683,-0.6835,-0.7941
2485116,0.1593,-0.6821,-0.8091
2485134,0.1479,-0.6742,-0.8278
2485149,0.1366,-0.6616,-0.8474
2485165,0.1271,-0.6461,-0.8656
2485181,0.1200,-0.6277,-0.8804
2485199,0.1155,-0.6050,-0.8916
2485215,0.1134,-0.5758,-0.9000
2485231,0.1140,-0.5388,-0.9062
2485242,0.1174,-0.4943,-0.9104
2485281,0.1334,-0.3885,-0.9148
2485293,0.1460,-0.3295,-0.9182
2485309,0.1615,-0.2660,-0.9254
2485351,0.2079,-0.0928,-0.9706
2485367,0.2251,-0.0231,-0.9990
2485383,0.2386,0.0430,-1.0309
2485393,0.2437,0.0739,-1.0474
2485409,0.2495,0.1300,-1.0798
2485425,0.2500,0.1761,-1.1100
2485441,0.2451,0.2103,-1.1355
2485459,0.2360,0.2312,-1.1549
2485469,0.2300,0.2365,-1.1619
2485485,0.2164,0.2368,-1.1700
2485501,0.2015,0.2241,-1.1704
2485516,0.1866,0.1995,-1.1635
2485545,0.1606,0.1212,-1.1317
2485561,0.1511,0.0721,-1.1097
2485577,0.1444,0.0194,-1.0854
2485590,0.1422,-0.0076,-1.0730
2485606,0.1399,-0.0614,-1.0480
2485622,0.1399,-0.1134,-1.0238
2485658,0.1444,-0.2228,-0.9731
2485668,0.1473,-0.2397,-0.9652
2485679,0.1488,-0.2550,-0.9581
2485695,0.1512,-0.2797,-0.9464
2485711,0.1533,-0.2972,-0.9380
2485748,0.1562,-0.3138,-0.9298
2485757,0.1567,-0.3136,-0.9302
2485772,0.1572,-0.3125,-0.9312
2485790,0.1589,-0.3049,-0.9375
2485802,0.1597,-0.3014,-0.9404
2485818,0.1613,-0.2931,-0.9470
2485834,0.1633,-0.2833,-0.9539
2485852,0.1661,-0.2725,-0.9602
2485868,0.1693,-0.2611,-0.9655
2485879,0.1727,-0.2498,-0.9696
2485894,0.1743,-0.2443,-0.9712
2485910,0.1770,-0.2336,-0.9740
2485982,0.1788,-0.2017,-0.9819
2486027,0.1759,-0.2133,-0.9829
2486042,0.1757,-0.2178,-0.9825
2486058,0.1755,-0.2281,-0.9813
2486074,0.1750,-0.2391,-0.9792
2486092,0.1732,-0.2540,-0.9745
2486107,0.1721,-0.2579,-0.9728
2486137,0.1655,-0.2679,-0.9666
2486152,0.1617,-0.2698,-0.9642
2486167,0.1589,-0.2703,-0.9622
2486184,0.1577,-0.2705,-0.9602
2486200,0.1581,-0.2717,-0.9584
2486213,0.1588,-0.2729,-0.9574
2486225,0.1610,-0.2771,-0.9559
2486241,0.1635,-0.2834,-0.9551
2486251,0.1646,-0.2874,-0.9550
2486267,0.1661,-0.2957,-0.9558
2486283,0.1663,-0.3038,-0.9578
2486313,0.1616,-0.3167,-0.9628
2486343,0.1539,-0.3230,-0.9625
2486359,0.1472,-0.3258,-0.9583
2486375,0.1398,-0.3278,-0.9496
2486385,0.1361,-0.3286,-0.9437
2486401,0.1293,-0.3304,-0.9287
2486417,0.1232,-0.3334,-0.9106
2486433,0.1171,-0.3380,-0.8910
2486451,0.1106,-0.3440,-0.8647
2486467,0.1045,-0.3507,-0.8583
2486483,0.0997,-0.3572,-0.8505
2486501,0.0975,-0.3650,-0.8530
2486512,0.0985,-0.3672,-0.8574
2486541,0.1062,-0.3726,-0.8785
2486556,0.1147,-0.3761,-0.8969
2486571,0.1254,-0.3800,-0.9161
2486589,0.1368,-0.3848,-0.9346
2486628,0.1605,-0.4010,-0.9658
2486644,0.1648,-0.4086,-0.9703
2486654,0.1656,-0.4126,-0.9709
2486670,0.1649,-0.4205,-0.9694
2486686,0.1613,-0.4275,-0.9652
2486704,0.1550,-0.4321,-0.9598
2486741,0.1292,-0.4285,-0.9440
2486757,0.1152,-0.4211,-0.9363
2486773,0.1002,-0.4110,-0.9277
2486783,0.0925,-0.4052,-0.9235
2486799,0.0774,-0.3925,-0.9150
2486813,0.0632,-0.3795,-0.9075
2486829,0.0510,-0.3674,-0.9010
2486847,0.0417,-0.3583,-0.8954
2486863,0.0366,-0.3542,-0.8901
2486879,0.0361,-0.3571,-0.8848
2486895,0.0408,-0.3679,-0.8784
2486934,0.0725,-0.4307,-0.8535
2486992,0.1421,-0.5731,-0.8048
2487012,0.1602,-0.6160,-0.7933
2487031,0.1761,-0.6588,-0.7832
2487047,0.1902,-0.7024,-0.7743
2487063,0.2024,-0.7468,-0.7660
2487078,0.2125,-0.7908,-0.7578
2487088,0.2164,-0.8118,-0.7538
2487106,0.2219,-0.8663,-0.7440
2487121,0.2214,-0.8802,-0.7419
2487137,0.2180,-0.8995,-0.7400
2487148,0.2131,-0.9069,-0.7408
2487177,0.2054,-0.8944,-0.7466
2487193,0.2000,-0.8674,-0.7538
2487233,0.1853,-0.7101,-0.7905
2487243,0.1836,-0.6615,-0.8014
2487259,0.1840,-0.5492,-0.8258
2487275,0.1914,-0.4198,-0.8544
2487291,0.2067,-0.2778,-0.8885
2487331,0.2643,0.1006,-1.0122
2487344,0.2848,0.2460,-1.0742
2487360,0.2991,0.3762,-1.1353
2487370,0.3031,0.4331,-1.1632
2487386,0.3051,0.5251,-1.2100
2487402,0.2990,0.5839,-1.2407
2487413,0.2932,0.5999,-1.2494
2487431,0.2772,0.6053,-1.2538
2487447,0.2567,0.5785,-1.2419
2487463,0.2334,0.5245,-1.2168
2487479,0.2095,0.4501,-1.1818
2487497,0.1866,0.3617,-1.1410
2487542,0.1400,0.0739,-1.0190
2487579,0.1332,-0.0875,-0.9626
2487594,0.1353,-0.1493,-0.9456
2487610,0.1394,-0.1973,-0.9354
2487628,0.1447,-0.2321,-0.9314
2487644,0.1504,-0.2555,-0.9323
2487660,0.1561,-0.2695,-0.9364
2487676,0.1617,-0.2766,-0.9424
2487694,0.1694,-0.2788,-0.9520
2487710,0.1719,-0.2782,-0.9575
2487724,0.1760,-0.2756,-0.9598
2487735,0.1796,-0.2723,-0.9635
2487751,0.1810,-0.2706,-0.9659
2487781,0.1863,-0.2654,-0.9675
2487797,0.1888,-0.2643,-0.9677
2487813,0.1912,-0.2640,-0.9672
2487852,0.1949,-0.2643,-0.9641
2487868,0.1959,-0.2629,-0.9631
2487886,0.1967,-0.2598,-0.9629
2487902,0.1973,-0.2542,-0.9637
2487918,0.1976,-0.2455,-0.9657
2487929,0.1979,-0.2400,-0.9670
2487983,0.1967,-0.1823,-0.9784
2487999,0.1956,-0.1615,-0.9816
2488009,0.1951,-0.1509,-0.9830
2488025,0.1943,-0.1294,-0.9863
2488041,0.1943,-0.1080,-0.9897
2488052,0.1947,-0.0975,-0.9916
2488070,0.1960,-0.0679,-0.9966
2488086,0.1980,-0.0591,-0.9982
2488101,0.2003,-0.0436,-1.0015
2488116,0.2032,-0.0315,-1.0046
2488151,0.2131,-0.0208,-1.0090
2488198,0.2300,-0.0459,-1.0016
2488213,0.2328,-0.0634,-0.9948
2488223,0.2335,-0.0731,-0.9910
2488239,0.2339,-0.0938,-0.9834
2488254,0.2328,-0.1151,-0.9764
2488270,0.2311,-0.1364,-0.9702
2488288,0.2295,-0.1572,-0.9646
2488304,0.2286,-0.1780,-0.9595
2488320,0.2291,-0.1987,-0.9550
2488336,0.2312,-0.2197,-0.9515
2488350,0.2347,-0.2412,-0.9497
2488360,0.2369,-0.2522,-0.9495
2488370,0.2395,-0.2634,-0.9500
2488386,0.2452,-0.2865,-0.9525
2488402,0.2513,-0.3104,-0.9575
2488418,0.2571,-0.3345,-0.9642
2488472,0.2590,-0.4001,-0.9862
2488490,0.2522,-0.4104,-0.9880
2488506,0.2424,-0.4166,-0.9869
2488522,0.2305,-0.4189,-0.9828
2488538,0.2174,-0.4181,-0.9763
2488556,0.2041,-0.4149,-0.9677
2488574,0.1912,-0.4098,-0.9573
2488589,0.1790,-0.4023,-0.9460
2488605,0.1674,-0.3928,-0.9351
2488642,0.1477,-0.3680,-0.9181
2488658,0.1403,-0.3539,-0.9174
2488669,0.1348,-0.3392,-0.9183
2488687,0.1310,-0.3251,-0.9222
2488703,0.1282,-0.3120,-0.9279
2488719,0.1257,-0.3005,-0.9347
2488755,0.1196,-0.2833,-0.9485
2488765,0.1179,-0.2781,-0.9545
2488775,0.1138,-0.2761,-0.9570
2488791,0.1089,-0.2737,-0.9615
2488807,0.1030,-0.2726,-0.9653
2488823,0.0967,-0.2726,-0.9684
2488852,0.0878,-0.2740,-0.9709
2488865,0.0825,-0.2758,-0.9713
2488881,0.0780,-0.2777,-0.9706
2488899,0.0739,-0.2799,-0.9686
2488915,0.0703,-0.2830,-0.9657
2488931,0.0676,-0.2883,-0.9611
2488942,0.0670,-0.2927,-0.9578
2488960,0.0676,-0.3063,-0.9485
2488979,0.0757,-0.3438,-0.9259
2488995,0.0861,-0.3818,-0.9049
2489011,0.0997,-0.4292,-0.8811
2489068,0.1650,-0.6458,-0.8103
2489101,0.2216,-0.8043,-0.7914
2489119,0.2516,-0.8861,-0.7866
2489135,0.2784,-0.9606,-0.7828
2489151,0.2991,-1.0209,-0.7778
2489167,0.3118,-1.0602,-0.7708
2489177,0.3149,-1.0702,-0.7666
2489188,0.3163,-1.0725,-0.7625
2489204,0.3141,-1.0520,-0.7556
2489220,0.3082,-0.9943,-0.7537
2489269,0.2952,-0.6044,-0.8143
2489280,0.2953,-0.4235,-0.8613
2489296,0.2983,-0.3291,-0.8889
2489306,0.3062,-0.1400,-0.9498
2489322,0.3193,0.0398,-1.0159
2489338,0.3374,0.1995,-1.0837
2489353,0.3475,0.2694,-1.1171
2489371,0.3771,0.4321,-1.2079
2489408,0.3958,0.5349,-1.2865
2489419,0.3894,0.5405,-1.3004
2489456,0.3427,0.4744,-1.2762
2489472,0.3063,0.4100,-1.2423
2489488,0.2657,0.3313,-1.1985
2489498,0.2450,0.2883,-1.1741
2489514,0.2048,0.1987,-1.1230
2489530,0.1687,0.1084,-1.0724
2489546,0.1384,0.0220,-1.0253
2489564,0.1150,-0.0571,-0.9840
2489580,0.0986,-0.1266,-0.9502
2489596,0.0891,-0.1849,-0.9246
2489612,0.0863,-0.2318,-0.9076
2489626,0.0895,-0.2672,-0.8989
2489656,0.1029,-0.3076,-0.9015
2489672,0.1157,-0.3124,-0.9050
2489709,0.1512,-0.3125,-0.9307
2489719,0.1580,-0.3088,-0.9364
2489735,0.1703,-0.2983,-0.9478
2489751,0.1813,-0.2847,-0.9587
2489767,0.1912,-0.2687,-0.9691
2489785,0.1997,-0.2515,-0.9786
2489801,0.2067,-0.2336,-0.9875
2489817,0.2123,-0.2150,-0.9960
2489831,0.2162,-0.1953,-1.0037
2489869,0.2158,-0.1465,-1.0149
2489885,0.2134,-0.1379,-1.0135
2489902,0.2021,-0.1188,-1.0084
2489912,0.1974,-0.1151,-1.0048
2489928,0.1875,-0.1130,-0.9963
2489944,0.1774,-0.1177,-0.9877
2489960,0.1678,-0.1284,-0.9800
2489978,0.1592,-0.1439,-0.9735
2490021,0.1425,-0.1960,-0.9617
2490032,0.1399,-0.2388,-0.9579
2490078,0.1351,-0.2816,-0.9451
2490093,0.1396,-0.3093,-0.9368
2490103,0.1429,-0.3240,-0.9319
2490119,0.1509,-0.3545,-0.9205
2490135,0.1594,-0.3859,-0.9078
2490151,0.1680,-0.4165,-0.8949
2490169,0.1768,-0.4462,-0.8824
2490185,0.1862,-0.4751,-0.8710
2490201,0.1956,-0.5028,-0.8611
2490212,0.2000,-0.5278,-0.8529
2490232,0.2092,-0.5485,-0.8472
2490243,0.2106,-0.5566,-0.8452
2490259,0.2101,-0.5684,-0.8434
2490275,0.2054,-0.5741,-0.8434
2490342,0.1790,-0.5717,-0.8539
2490360,0.1757,-0.5699,-0.8610
2490375,0.1753,-0.5688,-0.8635
2490391,0.1750,-0.5657,-0.8687
2490404,0.1743,-0.5605,-0.8737
2490422,0.1722,-0.5530,-0.8782
2490438,0.1675,-0.5431,-0.8818
2490448,0.1642,-0.5374,-0.8832
2490464,0.1556,-0.5249,-0.8848
2490480,0.1456,-0.5125,-0.8843
2490510,0.1261,-0.4901,-0.8749
2490526,0.1177,-0.4806,-0.8669
2490542,0.1096,-0.4718,-0.8582
2490555,0.1058,-0.4678,-0.8539
2490571,0.0985,-0.4602,-0.8456
2490587,0.0924,-0.4535,-0.8384
2490629,0.0834,-0.4341,-0.8319
2490666,0.0817,-0.4216,-0.8451
2490677,0.0826,-0.4192,-0.8502
2490693,0.0862,-0.4154,-0.8619
2490718,0.0947,-0.4124,-0.8813
2490734,0.1014,-0.4117,-0.8942
2490744,0.1079,-0.4121,-0.9059
2490760,0.1108,-0.4133,-0.9156
2490776,0.1160,-0.4143,-0.9198
2490792,0.1198,-0.4171,-0.9260
2490808,0.1223,-0.4209,-0.9297
2490824,0.1237,-0.4253,-0.9305
2490834,0.1240,-0.4302,-0.9286
2490845,0.1238,-0.4326,-0.9265
2490861,0.1227,-0.4371,-0.9207
2490879,0.1207,-0.4408,-0.9132
2490912,0.1146,-0.4431,-0.8970
2490949,0.1057,-0.4380,-0.8815
2490959,0.1042,-0.4366,-0.8793
2490975,0.1022,-0.4343,-0.8759
2490991,0.1012,-0.4325,-0.8739
2491007,0.1014,-0.4310,-0.8734
2491025,0.1027,-0.4298,-0.8741
2491041,0.1047,-0.4286,-0.8756
2491086,0.1110,-0.4253,-0.8813
2491157,0.1179,-0.4071,-0.9039
2491168,0.1194,-0.4062,-0.9066
2491184,0.1234,-0.4066,-0.9113
2491200,0.1284,-0.4100,-0.9142
2491216,0.1338,-0.4160,-0.9148
2491253,0.1431,-0.4377,-0.9070
2491266,0.1438,-0.4421,-0.9043
2491282,0.1436,-0.4502,-0.8983
2491300,0.1394,-0.4575,-0.8895
2491315,0.1371,-0.4585,-0.8871
2491364,0.1176,-0.4487,-0.8801
2491380,0.1110,-0.4417,-0.8812
2491390,0.1055,-0.4343,-0.8839
2491406,0.1017,-0.4275,-0.8876
2491422,0.1003,-0.4243,-0.8920
2491435,0.0990,-0.4187,-0.8942
2491453,0.0994,-0.4138,-0.8983
2491469,0.1013,-0.4102,-0.9015
2491503,0.1085,-0.4078,-0.9034
2491514,0.1130,-0.4091,-0.9025
2491549,0.1222,-0.4146,-0.8984
2491582,0.1307,-0.4226,-0.8929
2491592,0.1328,-0.4250,-0.8914
2491607,0.1364,-0.4303,-0.8878
2491623,0.1393,-0.4359,-0.8843
2491639,0.1415,-0.4414,-0.8811
2491657,0.1426,-0.4464,-0.8788
2491673,0.1425,-0.4503,-0.8778
2491689,0.1409,-0.4532,-0.8783
2491705,0.1382,-0.4546,-0.8801
2491715,0.1364,-0.4546,-0.8816
2491747,0.1268,-0.4492,-0.8896
2491763,0.1212,-0.4437,-0.8943
2491779,0.1156,-0.4370,-0.8988
2491789,0.1130,-0.4336,-0.9009
2491805,0.1086,-0.4266,-0.9045
2491816,0.1055,-0.4204,-0.9075
2491832,0.1039,-0.4153,-0.9094
2491850,0.1039,-0.4117,-0.9105
2491886,0.1079,-0.4093,-0.9105
2491902,0.1111,-0.4104,-0.9095
2491912,0.1128,-0.4113,-0.9089
2491922,0.1161,-0.4136,-0.9073
2491938,0.1190,-0.4160,-0.9055
2491951,0.1201,-0.4171,-0.9045
2491967,0.1218,-0.4189,-0.9023
2491999,0.1221,-0.4193,-0.8978
2492015,0.1207,-0.4177,-0.8955
2492031,0.1187,-0.4154,-0.8929
2492041,0.1174,-0.4142,-0.8917
2492084,0.1130,-0.4077,-0.8866
2492101,0.1129,-0.4058,-0.8855
2492117,0.1140,-0.4048,-0.8853
2492131,0.1163,-0.4054,-0.8854
2492147,0.1198,-0.4076,-0.8859
2492245,0.1387,-0.4402,-0.9010
2492256,0.1383,-0.4440,-0.9054
2492272,0.1365,-0.4452,-0.9075
2492288,0.1331,-0.4463,-0.9111
2492304,0.1284,-0.4454,-0.9136
2492322,0.1204,-0.4408,-0.9149
2492333,0.1176,-0.4386,-0.9147
2492349,0.1123,-0.4336,-0.9135
2492365,0.1078,-0.4280,-0.9115
2492421,0.1016,-0.4115,-0.9023
2492437,0.1031,-0.4091,-0.8995
2492447,0.1044,-0.4082,-0.8982
2492485,0.1111,-0.4064,-0.8918
2492518,0.1176,-0.4072,-0.8877
2492528,0.1184,-0.4077,-0.8868
2492538,0.1191,-0.4083,-0.8861
2492554,0.1205,-0.4103,-0.8850
2492587,0.1239,-0.4183,-0.8845
2492597,0.1251,-0.4213,-0.8849
2492612,0.1278,-0.4279,-0.8861
2492628,0.1309,-0.4348,-0.8882
2492644,0.1335,-0.4413,-0.8911
2492662,0.1354,-0.4462,-0.8948
2492678,0.1356,-0.4489,-0.8988
2492694,0.1340,-0.4489,-0.9026
2492710,0.1306,-0.4462,-0.9055
2492728,0.1256,-0.4413,-0.9073
2492746,0.1198,-0.4349,-0.9077
2492762,0.1136,-0.4281,-0.9065
2492778,0.1080,-0.4216,-0.9039
2492833,0.0991,-0.4104,-0.8931
2492849,0.0999,-0.4106,-0.8915
2492859,0.1007,-0.4113,-0.8910
2492870,0.1030,-0.4133,-0.8911
2492885,0.1044,-0.4147,-0.8915
2492901,0.1074,-0.4177,-0.8928
2492917,0.1105,-0.4209,-0.8948
2492927,0.1132,-0.4238,-0.8971
2492943,0.1143,-0.4260,-0.8997
2492953,0.1157,-0.4265,-0.9010
2492966,0.1161,-0.4266,-0.9025
2492982,0.1156,-0.4242,-0.9058
2493011,0.1121,-0.4032,-0.9170
2493027,0.1101,-0.3823,-0.9270
2493043,0.1090,-0.3550,-0.9410
2493053,0.1089,-0.3394,-0.9493
2493069,0.1099,-0.3057,-0.9679
2493085,0.1122,-0.2705,-0.9877
2493104,0.1156,-0.2366,-1.0068
2493158,0.1284,-0.1627,-1.0411
2493169,0.1292,-0.1611,-1.0394
2493213,0.1193,-0.2048,-0.9915
2493229,0.1154,-0.2202,-0.9645
2493247,0.1016,-0.2772,-0.9349
2493263,0.0917,-0.3221,-0.9047
2493279,0.0823,-0.3706,-0.8751
2493294,0.0781,-0.3956,-0.8611
2493315,0.0691,-0.4719,-0.8237
2493331,0.0673,-0.5225,-0.8035
2493347,0.0704,-0.5730,-0.7866
2493363,0.0792,-0.6241,-0.7723
2493407,0.1260,-0.7612,-0.7417
2493440,0.1824,-0.8888,-0.7140
2493450,0.2137,-0.9586,-0.6973
2493466,0.2299,-1.0249,-0.6794
2493480,0.2625,-1.0604,-0.6709
2493496,0.2942,-1.1167,-0.6558
2493514,0.3230,-1.1534,-0.6461
2493530,0.3484,-1.1617,-0.6447
2493546,0.3707,-1.1348,-0.6545
2493562,0.3895,-1.0692,-0.6783
2493602,0.4108,-0.7390,-0.8077
2493618,0.4060,-0.5511,-0.8835
2493633,0.3949,-0.3442,-0.9672
2493643,0.3873,-0.2375,-1.0101
2493659,0.3690,-0.0262,-1.0955
2493674,0.3468,0.1719,-1.1754
2493690,0.3212,0.3458,-1.2444
2493707,0.2927,0.4869,-1.2975
2493751,0.2189,0.6610,-1.3408
2493769,0.1804,0.6370,-1.3037
2493787,0.1599,0.5743,-1.2577
2493799,0.1514,0.5316,-1.2299
2493815,0.1382,0.4292,-1.1681
2493852,0.1266,0.1305,-1.0106
2493868,0.1293,0.0162,-0.9590
2493884,0.1353,-0.0856,-0.9182
2493894,0.1393,-0.1307,-0.9025
2493910,0.1490,-0.2078,-0.8802
2493926,0.1605,-0.2666,-0.8698
2493942,0.1729,-0.3076,-0.8696
2493960,0.1851,-0.3326,-0.8778
2493976,0.1967,-0.3439,-0.8915
2493989,0.2021,-0.3453,-0.8997
2493999,0.2123,-0.3420,-0.9171
2494015,0.2209,-0.3331,-0.9340
2494044,0.2306,-0.3147,-0.9543
2494077,0.2357,-0.2910,-0.9670
2494091,0.2349,-0.2820,-0.9668
2494106,0.2322,-0.2754,-0.9633
2494122,0.2284,-0.2716,-0.9574
2494136,0.2263,-0.2705,-0.9539
2494154,0.2202,-0.2705,-0.9430
2494170,0.2166,-0.2723,-0.9362
2494185,0.2150,-0.2737,-0.9331
2494207,0.2107,-0.2781,-0.9264
2494254,0.2039,-0.2847,-0.9277
2494270,0.2015,-0.2849,-0.9324
2494280,0.2003,-0.2847,-0.9353
2494296,0.1978,-0.2834,-0.9414
2494312,0.1947,-0.2812,-0.9480
2494328,0.1915,-0.2780,-0.9546
2494348,0.1880,-0.2737,-0.9609
2494384,0.1801,-0.2616,-0.9751
2494395,0.1790,-0.2595,-0.9773
2494406,0.1781,-0.2578,-0.9792
2494448,0.1788,-0.2552,-0.9855
2494463,0.1797,-0.2557,-0.9858
2494481,0.1825,-0.2571,-0.9861
2494494,0.1833,-0.2572,-0.9858
2494510,0.1849,-0.2571,-0.9846
2494526,0.1864,-0.2559,-0.9829
2494544,0.1879,-0.2528,-0.9810
2494560,0.1887,-0.2472,-0.9792
2494576,0.1885,-0.2380,-0.9783
2494592,0.1863,-0.2250,-0.9777
2494632,0.1703,-0.1766,-0.9774
2494648,0.1606,-0.1538,-0.9777
2494688,0.1324,-0.1016,-0.9789
2494698,0.1266,-0.0933,-0.9789
2494714,0.1157,-0.0802,-0.9781
2494730,0.1061,-0.0728,-0.9761
2494741,0.1022,-0.0717,-0.9745
2494759,0.0951,-0.0797,-0.9679
2494774,0.0950,-0.0863,-0.9651
2494790,0.0995,-0.1053,-0.9586
2494806,0.1106,-0.1321,-0.9509
2494816,0.1283,-0.1665,-0.9420
2494846,0.1642,-0.2310,-0.9261
2494862,0.1921,-0.2803,-0.9137
2494878,0.2213,-0.3322,-0.9001
2494888,0.2355,-0.3582,-0.8931
2494904,0.2615,-0.4086,-0.8788
2494920,0.2822,-0.4545,-0.8654
2494936,0.2964,-0.4930,-0.8539
2494954,0.3041,-0.5233,-0.8428
2495000,0.3087,-0.5811,-0.8395
2495040,0.3096,-0.6067,-0.8455
2495052,0.3077,-0.6078,-0.8502
2495068,0.2994,-0.6055,-0.8536
2495088,0.2722,-0.5885,-0.8712
2495103,0.2451,-0.5676,-0.8907
2495121,0.2140,-0.5397,-0.9160
2495130,0.1978,-0.5233,-0.9301
2495153,0.1509,-0.4696,-0.9719
2495168,0.1235,-0.4348,-0.9952
2495182,0.1117,-0.4193,-1.0044
2495197,0.0928,-0.3938,-1.0165
2495215,0.0806,-0.3760,-1.0203
2495226,0.0743,-0.3647,-1.0162
2495240,0.0726,-0.3608,-1.0120
2495256,0.0707,-0.3542,-1.0007
2495297,0.0642,-0.3323,-0.9709
2495343,0.0535,-0.2910,-0.9491
2495359,0.0505,-0.2782,-0.9429
2495375,0.0490,-0.2683,-0.9355
2495391,0.0497,-0.2632,-0.9263
2495407,0.0533,-0.2645,-0.9144
2495423,0.0599,-0.2736,-0.9004
2495467,0.0820,-0.3212,-0.8635
2495483,0.0903,-0.3451,-0.8517
2495500,0.0981,-0.3699,-0.8434
2495512,0.1052,-0.3949,-0.8396
2495525,0.1084,-0.4073,-0.8395
2495541,0.1141,-0.4318,-0.8428
2495557,0.1182,-0.4556,-0.8495
2495567,0.1196,-0.4675,-0.8534
2495603,0.1255,-0.5399,-0.8654
2495619,0.1313,-0.5819,-0.8590
2495629,0.1359,-0.6071,-0.8522
2495639,0.1417,-0.6354,-0.8424
2495650,0.1580,-0.7015,-0.8146
2495664,0.1688,-0.7395,-0.7969
2495679,0.1959,-0.8235,-0.7557
2495716,0.2842,-1.0466,-0.6503
2495732,0.3175,-1.1160,-0.6207
2495748,0.3451,-1.1592,-0.6038
2495758,0.3567,-1.1692,-0.6003
2495774,0.3750,-1.1646,-0.6036
2495790,0.3860,-1.1263,-0.6201
2495806,0.3885,-1.0536,-0.6494
2495824,0.3837,-0.9463,-0.6909
2495842,0.3737,-0.8064,-0.7438
2495858,0.3615,-0.6398,-0.8062
2495874,0.3484,-0.4553,-0.8751
2495907,0.3192,-0.0763,-1.0172
2495937,0.2864,0.2513,-1.1384
2495949,0.2782,0.3179,-1.1628
2495965,0.2626,0.4274,-1.2030
2495983,0.2479,0.5028,-1.2308
2495999,0.2345,0.5424,-1.2458
2496015,0.2222,0.5472,-1.2487
2496028,0.2115,0.5209,-1.2402
2496068,0.1940,0.3539,-1.1837
2496081,0.1920,0.3092,-1.1682
2496096,0.1897,0.2147,-1.1348
2496114,0.1888,0.1177,-1.0992
2496129,0.1891,0.0232,-1.0631
2496145,0.1897,-0.0645,-1.0282
2496161,0.1902,-0.1416,-0.9958
2496179,0.1899,-0.2059,-0.9675
2496221,0.1864,-0.3071,-0.9198
2496237,0.1849,-0.3256,-0.9100
2496297,0.1859,-0.3215,-0.9111
2496315,0.1886,-0.3115,-0.9172
2496326,0.1903,-0.3063,-0.9207
2496342,0.1942,-0.2965,-0.9275
2496358,0.1987,-0.2880,-0.9338
2496376,0.2036,-0.2812,-0.9388
2496392,0.2084,-0.2767,-0.9419
2496408,0.2125,-0.2744,-0.9429
2496424,0.2156,-0.2739,-0.9415
2496444,0.2175,-0.2762,-0.9363
2496458,0.2174,-0.2775,-0.9338
2496474,0.2161,-0.2806,-0.9290
2496508,0.2069,-0.2889,-0.9197
2496550,0.1951,-0.2946,-0.9231
2496563,0.1932,-0.2952,-0.9257
2496581,0.1904,-0.2958,-0.9323
2496597,0.1892,-0.2957,-0.9402
2496613,0.1892,-0.2949,-0.9485
2496629,0.1902,-0.2939,-0.9568
2496640,0.1919,-0.2926,-0.9640
2496650,0.1927,-0.2920,-0.9670
2496660,0.1936,-0.2914,-0.9697
2496676,0.1949,-0.2902,-0.9738
2496692,0.1957,-0.2889,-0.9760
2496707,0.1957,-0.2872,-0.9767
2496737,0.1929,-0.2816,-0.9744
2496753,0.1917,-0.2797,-0.9719
2496769,0.1888,-0.2750,-0.9707
2496779,0.1863,-0.2690,-0.9686
2496829,0.1835,-0.2336,-0.9756
2496847,0.1841,-0.2142,-0.9839
2496865,0.1844,-0.1914,-0.9944
2496881,0.1842,-0.1663,-1.0065
2496897,0.1836,-0.1398,-1.0192
2496934,0.1798,-0.0784,-1.0485
2496945,0.1787,-0.0684,-1.0527
2496961,0.1765,-0.0524,-1.0582
2496979,0.1740,-0.0430,-1.0586
2496995,0.1707,-0.0413,-1.0526
2497011,0.1663,-0.0480,-1.0400
2497027,0.1611,-0.0630,-1.0211
2497045,0.1558,-0.0854,-0.9963
2497061,0.1509,-0.1145,-0.9677
2497076,0.1467,-0.1483,-0.9369
2497091,0.1437,-0.1851,-0.9067
2497117,0.1425,-0.2415,-0.8688
2497158,0.1510,-0.3251,-0.8412
2497167,0.1543,-0.3386,-0.8417
2497182,0.1627,-0.3618,-0.8480
2497198,0.1735,-0.3800,-0.8601
2497214,0.1860,-0.3940,-0.8757
2497229,0.1993,-0.4053,-0.8931
2497240,0.2061,-0.4103,-0.9017
2497258,0.2192,-0.4191,-0.9180
2497277,0.2361,-0.4313,-0.9364
2497292,0.2401,-0.4351,-0.9406
2497308,0.2448,-0.4425,-0.9454
2497362,0.2238,-0.4667,-0.9385
2497378,0.2118,-0.4736,-0.9346
2497388,0.2061,-0.4772,-0.9329
2497439,0.1798,-0.4972,-0.9266
2497449,0.1737,-0.5013,-0.9253
2497464,0.1708,-0.5027,-0.9243
2497482,0.1630,-0.5034,-0.9205
2497496,0.1606,-0.5029,-0.9188
2497547,0.1415,-0.4972,-0.8958
2497562,0.1381,-0.4973,-0.8904
2497576,0.1312,-0.4993,-0.8779
2497586,0.1278,-0.5012,-0.8710
2497602,0.1211,-0.5070,-0.8561
2497618,0.1151,-0.5155,-0.8401
2497634,0.1102,-0.5270,-0.8234
2497652,0.1071,-0.5416,-0.8060
2497668,0.1066,-0.5599,-0.7880
2497686,0.1118,-0.5950,-0.7595
2497701,0.1155,-0.6085,-0.7499
2497737,0.1464,-0.6863,-0.7095
2497767,0.1721,-0.7350,-0.7010
2497782,0.1901,-0.7660,-0.7045
2497798,0.2064,-0.7944,-0.7141
2497808,0.2446,-0.8182,-0.7281
2497824,0.2238,-0.8278,-0.7361
2497840,0.2292,-0.8409,-0.7521
2497856,0.2300,-0.8464,-0.7667
2497868,0.2268,-0.8434,-0.7783
2497878,0.2239,-0.8379,-0.7827
2497888,0.2205,-0.8291,-0.7863
2497904,0.2126,-0.7998,-0.7917
2497920,0.2053,-0.7516,-0.7974
2497936,0.2018,-0.6825,-0.8066
2497965,0.2166,-0.4868,-0.8497
2497981,0.2358,-0.3649,-0.8896
2497997,0.2607,-0.2307,-0.9441
2498007,0.2742,-0.1600,-0.9766
2498039,0.3243,0.1294,-1.1296
2498055,0.3413,0.2628,-1.2070
2498073,0.3494,0.3757,-1.2732
2498090,0.3478,0.4600,-1.3210
2498101,0.3435,0.4899,-1.3365
2498116,0.3289,0.5232,-1.3492
2498153,0.2689,0.4600,-1.2827
2498166,0.2552,0.4260,-1.2562
2498178,0.2283,0.3425,-1.1949
2498196,0.2030,0.2448,-1.1278
2498212,0.1805,0.1403,-1.0603
2498228,0.1615,0.0364,-0.9978
2498244,0.1464,-0.0605,-0.9440
2498262,0.1354,-0.1458,-0.9011
2498278,0.1283,-0.2163,-0.8704
2498293,0.1250,-0.2708,-0.8514
2498304,0.1246,-0.2920,-0.8462
2498345,0.1315,-0.3442,-0.8535
2498391,0.1453,-0.3274,-0.9044
2498407,0.1486,-0.3137,-0.9237
2498417,0.1498,-0.3066,-0.9329
2498433,0.1512,-0.2931,-0.9492
2498449,0.1516,-0.2814,-0.9622
2498465,0.1509,-0.2725,-0.9712
2498476,0.1500,-0.2692,-0.9740
2498486,0.1489,-0.2666,-0.9758
2498508,0.1448,-0.2637,-0.9760
2498524,0.1418,-0.2649,-0.9724
2498540,0.1393,-0.2681,-0.9670
2498582,0.1366,-0.2798,-0.9513
2498596,0.1373,-0.2845,-0.9459
2498617,0.1389,-0.2886,-0.9418
2498653,0.1450,-0.2921,-0.9386
2498669,0.1476,-0.2899,-0.9406
2498679,0.1487,-0.2881,-0.9421
2498695,0.1506,-0.2833,-0.9462
2498705,0.1514,-0.2805,-0.9485
2498721,0.1527,-0.2740,-0.9532
2498737,0.1534,-0.2667,-0.9583
2498770,0.1526,-0.2500,-0.9684
2498786,0.1509,-0.2404,-0.9741
2498801,0.1486,-0.2299,-0.9807
2498811,0.1473,-0.2241,-0.9843
2498827,0.1458,-0.2119,-0.9921
2498843,0.1455,-0.1982,-1.0007
2498859,0.1467,-0.1827,-1.0099
2498877,0.1487,-0.1643,-1.0198
2498893,0.1503,-0.1421,-1.0299
2498911,0.1516,-0.1157,-1.0398
2498951,0.1555,-0.0443,-1.0587
2498981,0.1604,-0.0024,-1.0623
2498997,0.1635,0.0089,-1.0585
2499013,0.1665,0.0129,-1.0505
2499023,0.1677,0.0121,-1.0450
2499039,0.1678,0.0052,-1.0312
2499050,0.1664,-0.0001,-1.0233
2499066,0.1595,-0.0139,-1.0061
2499084,0.1395,-0.0399,-0.9812
2499097,0.1307,-0.0500,-0.9744
2499115,0.1115,-0.0734,-0.9642
2499131,0.0920,-0.1025,-0.9594
2499179,0.0563,-0.2328,-0.9697
2499194,0.0564,-0.2876,-0.9757
2499218,0.0680,-0.3740,-0.9807
2499261,0.1051,-0.5038,-0.9698
2499279,0.1199,-0.5405,-0.9578
2499294,0.1317,-0.5651,-0.9423
2499309,0.1400,-0.5770,-0.9252
2499320,0.1428,-0.5786,-0.9166
2499336,0.1461,-0.5748,-0.9010
2499382,0.1428,-0.5356,-0.8748
2499398,0.1399,-0.5261,-0.8727
2499408,0.1385,-0.5244,-0.8723
2499424,0.1371,-0.5292,-0.8718
2499440,0.1384,-0.5464,-0.8705
2499451,0.1406,-0.5601,-0.8672
2499469,0.1541,-0.6199,-0.8613
2499485,0.1691,-0.6731,-0.8524
2499499,0.1783,-0.7026,-0.8466
2499515,0.1996,-0.7657,-0.8317
2499525,0.2113,-0.7983,-0.8118
2499567,0.2767,-0.9696,-0.7440
2499602,0.2935,-1.0022,-0.6951
2499612,0.2932,-0.9948,-0.6873
2499628,0.2883,-0.9594,-0.6797
2499644,0.2788,-0.8961,-0.6857
2499660,0.2665,-0.8053,-0.7072
2499680,0.2522,-0.6228,-0.7689
2499696,0.2372,-0.5524,-0.7964
2499712,0.2229,-0.4022,-0.8584
2499730,0.2068,-0.1713,-0.9591
2499760,0.1980,0.0411,-1.0564
2499772,0.1949,0.1628,-1.1156
2499788,0.1926,0.2651,-1.1680
2499805,0.1902,0.3466,-1.2111
2499821,0.1870,0.4059,-1.2419
2499837,0.1831,0.4415,-1.2585
2499853,0.1781,0.4526,-1.2599
2499871,0.1716,0.4397,-1.2468
2499907,0.1567,0.3556,-1.1891
2499923,0.1505,0.2931,-1.1519
2499955,0.1436,0.1476,-1.0786
2499971,0.1429,0.0729,-1.0481
2499987,0.1434,0.0029,-1.0239
2499997,0.1440,-0.0293,-1.0144
2500013,0.1453,-0.0862,-1.0001
2500029,0.1464,-0.1323,-0.9913
2500045,0.1466,-0.1675,-0.9865
2500056,0.1465,-0.1926,-0.9838
2500066,0.1458,-0.2021,-0.9828
2500082,0.1447,-0.2164,-0.9810
2500095,0.1442,-0.2216,-0.9799
2500108,0.1434,-0.2295,-0.9769
2500124,0.1432,-0.2352,-0.9728
2500156,0.1449,-0.2449,-0.9602
2500172,0.1465,-0.2498,-0.9524
2500205,0.1500,-0.2599,-0.9368
2500215,0.1509,-0.2626,-0.9332
2500231,0.1521,-0.2676,-0.9271
2500247,0.1528,-0.2722,-0.9226
2500263,0.1531,-0.2764,-0.9202
2500281,0.1530,-0.2794,-0.9203
2500297,0.1523,-0.2816,-0.9230
2500313,0.1515,-0.2827,-0.9277
2500328,0.1500,-0.2827,-0.9342
2500346,0.1484,-0.2816,-0.9418
2500392,0.1445,-0.2747,-0.9662
2500407,0.1442,-0.2734,-0.9698
2500417,0.1440,-0.2714,-0.9760
2500433,0.1444,-0.2700,-0.9800
2500448,0.1445,-0.2697,-0.9811
2500464,0.1448,-0.2697,-0.9812
2500482,0.1447,-0.2706,-0.9767
2500525,0.1433,-0.2739,-0.9639
2500577,0.1444,-0.2755,-0.9583
2500593,0.1458,-0.2738,-0.9609
2500611,0.1472,-0.2701,-0.9658
2500624,0.1489,-0.2642,-0.9728
2500640,0.1505,-0.2551,-0.9819
2500656,0.1517,-0.2418,-0.9934
2500676,0.1523,-0.2230,-1.0077
2500692,0.1520,-0.1969,-1.0251
2500703,0.1506,-0.1620,-1.0459
2500719,0.1490,-0.1180,-1.0691
2500737,0.1478,-0.0668,-1.0933
2500747,0.1477,-0.0394,-1.1052
2500763,0.1483,0.0164,-1.1272
2500779,0.1506,0.0704,-1.1450
2500813,0.1625,0.1599,-1.1633
2500843,0.1846,0.2023,-1.1542
2500859,0.1975,0.1991,-1.1384
2500875,0.2098,0.1792,-1.1150
2500885,0.2151,0.1632,-1.1005
2500901,0.2217,0.1215,-1.0667
2500917,0.2207,0.0695,-1.0277
2500933,0.2104,0.0118,-0.9856
2500973,0.1484,-0.1370,-0.8809
2500989,0.1151,-0.1948,-0.8439
2501000,0.0979,-0.2231,-0.8270
2501018,0.0640,-0.2784,-0.7966
2501034,0.0331,-0.3320,-0.7708
2501050,0.0084,-0.3845,-0.7494
2501066,-0.0068,-0.4364,-0.7340
2501083,-0.0103,-0.4885,-0.7262
2501135,0.0535,-0.6426,-0.7540
2501145,0.0922,-0.6881,-0.7750
2501156,0.1132,-0.7091,-0.7861
2501171,0.1564,-0.7474,-0.8086
2501190,0.1993,-0.7817,-0.8300
2501199,0.2200,-0.7975,-0.8397
2501232,0.2919,-0.8525,-0.8696
2501248,0.3187,-0.8755,-0.8762
2501264,0.3381,-0.8960,-0.8757
2501274,0.3451,-0.9368,-0.8678
2501290,0.3536,-0.9237,-0.8615
2501301,0.3562,-0.9406,-0.8446
2501317,0.3540,-0.9553,-0.8241
2501334,0.3481,-0.9662,-0.8016
2501350,0.3396,-0.9712,-0.7783
2501362,0.3346,-0.9708,-0.7667
2501378,0.3232,-0.9634,-0.7440
2501443,0.2583,-0.8112,-0.6870
2501476,0.2172,-0.6482,-0.7021
2501486,0.2081,-0.5992,-0.7133
2501502,0.1932,-0.4949,-0.7450
2501518,0.1835,-0.3856,-0.7889
2501534,0.1803,-0.2759,-0.8422
2501552,0.1853,-0.1080,-0.9307
2501563,0.1984,-0.0751,-0.9603
2501579,0.2174,0.0065,-1.0175
2501595,0.2394,0.0719,-1.0696
2501606,0.2504,0.0988,-1.0934
2501648,0.2913,0.1864,-1.1879
2501661,0.2959,0.2065,-1.2134
2501682,0.2922,0.2201,-1.2306
2501698,0.2805,0.2258,-1.2383
2501714,0.2620,0.2223,-1.2357
2501730,0.2380,0.2087,-1.2230
2501740,0.2249,0.1981,-1.2014
2501784,0.1466,0.0917,-1.1248
2501794,0.1361,0.0684,-1.1085
2501824,0.1075,-0.0315,-1.0509
2501839,0.1016,-0.0813,-1.0287
2501854,0.1005,-0.1051,-1.0193
2501864,0.1011,-0.1490,-1.0039
2501880,0.1046,-0.1870,-0.9922
2501891,0.1071,-0.2032,-0.9873
2501907,0.1127,-0.2301,-0.9792
2501923,0.1187,-0.2500,-0.9719
2501933,0.1216,-0.2574,-0.9685
2501949,0.1271,-0.2684,-0.9613
2501965,0.1322,-0.2747,-0.9540
2501981,0.1368,-0.2767,-0.9469
2502022,0.1490,-0.2665,-0.9366
2502030,0.1521,-0.2621,-0.9364
2502046,0.1588,-0.2513,-0.9380
2502089,0.1758,-0.2113,-0.9508
2502105,0.1807,-0.1897,-0.9600
2502121,0.1836,-0.1656,-0.9714
2502131,0.1841,-0.1532,-0.9778
2502147,0.1830,-0.1284,-0.9907
2502163,0.1791,-0.1051,-1.0023
2502177,0.1720,-0.0850,-1.0110
2502195,0.1621,-0.0696,-1.0153
2502209,0.1503,-0.0599,-1.0148
2502225,0.1378,-0.0569,-1.0096
2502241,0.1255,-0.0607,-1.0006
2502282,0.0989,-0.1025,-0.9661
2502298,0.0922,-0.1321,-0.9492
2502314,0.0886,-0.1678,-0.9318
2502324,0.0880,-0.1875,-0.9233
2502339,0.0887,-0.2286,-0.9082
2502355,0.0913,-0.2704,-0.8962
2502391,0.0995,-0.3491,-0.8845
2502401,0.1012,-0.3673,-0.8839
2502412,0.1017,-0.4019,-0.8851
2502428,0.0968,-0.4331,-0.8892
2502443,0.0927,-0.4470,-0.8926
2502459,0.0830,-0.4709,-0.9022
2502510,0.0846,-0.5128,-0.9563
2502526,0.0981,-0.5171,-0.9650
2502536,0.1058,-0.5184,-0.9664
2502552,0.1216,-0.5195,-0.9636
2502568,0.1357,-0.5181,-0.9546
2502584,0.1469,-0.5131,-0.9417
2502602,0.1542,-0.5044,-0.9268
2502613,0.1564,-0.4990,-0.9191
2502629,0.1578,-0.4863,-0.9044
2502645,0.1564,-0.4727,-0.8921
2502696,0.1444,-0.4363,-0.8783
2502744,0.1287,-0.4103,-0.8953
2502754,0.1254,-0.3752,-0.9030
2502770,0.1184,-0.3990,-0.9066
2502786,0.1111,-0.3917,-0.9130
2502802,0.1040,-0.3842,-0.9177
2502813,0.0974,-0.3759,-0.9207
2502849,0.0858,-0.3568,-0.9215
2502864,0.0803,-0.3461,-0.9204
2502880,0.0746,-0.3351,-0.9191
2502890,0.0715,-0.3296,-0.9183
2502906,0.0654,-0.3190,-0.9170
2502922,0.0593,-0.3093,-0.9163
2502938,0.0536,-0.3013,-0.9165
2502956,0.0485,-0.2952,-0.9181
2502972,0.0441,-0.2910,-0.9213
2502988,0.0406,-0.2889,-0.9260
2503006,0.0375,-0.2883,-0.9325
2503039,0.0308,-0.2902,-0.9495
2503072,0.0229,-0.2931,-0.9681
2503088,0.0190,-0.2941,-0.9766
2503104,0.0151,-0.2946,-0.9841
2503117,0.0114,-0.2943,-0.9905
2503133,0.0076,-0.2937,-0.9954
2503149,0.0044,-0.2927,-0.9984
2503165,0.0022,-0.2915,-0.9996
2503175,0.0015,-0.2908,-0.9995
2503202,0.0013,-0.2891,-0.9973
2503219,0.0028,-0.2881,-0.9940
2503243,0.0067,-0.2874,-0.9868
2503254,0.0095,-0.2871,-0.9808
2503270,0.0120,-0.2871,-0.9746
2503285,0.0128,-0.2871,-0.9716
2503324,0.0154,-0.2875,-0.9581
2503360,0.0184,-0.2877,-0.9492
2503370,0.0195,-0.2876,-0.9479
2503386,0.0222,-0.2872,-0.9459
2503402,0.0256,-0.2866,-0.9446
2503418,0.0292,-0.2859,-0.9437
2503436,0.0328,-0.2852,-0.9430
2503455,0.0363,-0.2845,-0.9424
2503466,0.0391,-0.2842,-0.9419
2503481,0.0403,-0.2842,-0.9417
2503536,0.0430,-0.2854,-0.9445
2503552,0.0417,-0.2861,-0.9471
2503562,0.0408,-0.2865,-0.9487
2503578,0.0386,-0.2871,-0.9523
2503594,0.0360,-0.2876,-0.9561
2503610,0.0334,-0.2880,-0.9600
2503628,0.0315,-0.2881,-0.9634
2503661,0.0300,-0.2885,-0.9673
2503672,0.0310,-0.2885,-0.9672
2503723,0.0381,-0.2885,-0.9594
2503736,0.0404,-0.2883,-0.9550
2503754,0.0422,-0.2880,-0.9503
2503770,0.0430,-0.2876,-0.9459
2503786,0.0427,-0.2871,-0.9420
2503802,0.0414,-0.2866,-0.9395
2503813,0.0403,-0.2865,-0.9386
2503823,0.0389,-0.2863,-0.9382
2503839,0.0356,-0.2860,-0.9386
2503854,0.0321,-0.2859,-0.9406
2503872,0.0287,-0.2860,-0.9438
2503913,0.0239,-0.2865,-0.9542
2503929,0.0242,-0.2866,-0.9575
2503965,0.0299,-0.2870,-0.9606
2503975,0.0317,-0.2870,-0.9603
2503991,0.0354,-0.2870,-0.9590
2504007,0.0389,-0.2869,-0.9569
2504023,0.0421,-0.2867,-0.9543
2504041,0.0446,-0.2866,-0.9517
2504057,0.0461,-0.2866,-0.9492
2504075,0.0465,-0.2866,-0.9474
2504091,0.0458,-0.2867,-0.9464
2504102,0.0450,-0.2869,-0.9463
2504133,0.0396,-0.2875,-0.9480
2504149,0.0360,-0.2878,-0.9502
2504165,0.0327,-0.2881,-0.9528
2504175,0.0311,-0.2882,-0.9541
2504191,0.0289,-0.2882,-0.9567
2504207,0.0277,-0.2882,-0.9587
2504223,0.0277,-0.2882,-0.9602
2504271,0.0347,-0.2881,-0.9598
2504281,0.0364,-0.2881,-0.9590
2504297,0.0399,-0.2881,-0.9567
2504328,0.0455,-0.2880,-0.9510
2504344,0.0466,-0.2880,-0.9485
2504359,0.0463,-0.2878,-0.9465
2504369,0.0455,-0.2878,-0.9459
2504385,0.0430,-0.2877,-0.9453
2504401,0.0393,-0.2875,-0.9458
2504412,0.0371,-0.2875,-0.9465
2504430,0.0323,-0.2874,-0.9501
2504446,0.0277,-0.2872,-0.9517
2504462,0.0236,-0.2872,-0.9552
2504478,0.0204,-0.2872,-0.9586
2504489,0.0184,-0.2874,-0.9617
2504537,0.0225,-0.2881,-0.9637
2504570,0.0321,-0.2886,-0.9581
2504580,0.0349,-0.2887,-0.9561
2504596,0.0403,-0.2886,-0.9515
2504612,0.0452,-0.2885,-0.9473
2504628,0.0492,-0.2882,-0.9435
2504646,0.0518,-0.2880,-0.9410
2504662,0.0529,-0.2877,-0.9401
2504678,0.0524,-0.2877,-0.9409
2504696,0.0504,-0.2877,-0.9436
2504707,0.0491,-0.2878,-0.9454
2504750,0.0381,-0.2886,-0.9603
2504763,0.0365,-0.2887,-0.9626
2504781,0.0338,-0.2888,-0.9664
2504797,0.0325,-0.2888,-0.9685
2504813,0.0326,-0.2886,-0.9685
2504829,0.0341,-0.2883,-0.9664
2504847,0.0367,-0.2878,-0.9600
2504883,0.0449,-0.2876,-0.9485
2504901,0.0475,-0.2875,-0.9431
2504935,0.0490,-0.2875,-0.9365
2504951,0.0479,-0.2874,-0.9360
2504967,0.0455,-0.2872,-0.9375
2504977,0.0441,-0.2872,-0.9388
2504993,0.0406,-0.2871,-0.9426
2505004,0.0372,-0.2871,-0.9473
2505020,0.0342,-0.2872,-0.9521
2505038,0.0320,-0.2874,-0.9569
2505054,0.0309,-0.2876,-0.9609
2505070,0.0310,-0.2880,-0.9639
2505086,0.0323,-0.2883,-0.9652
2505127,0.0403,-0.2896,-0.9622
2505143,0.0443,-0.2900,-0.9590
2505184,0.0532,-0.2906,-0.9493
2505194,0.0543,-0.2906,-0.9476
2505221,0.0554,-0.2904,-0.9435
2505230,0.0551,-0.2903,-0.9426
2505246,0.0533,-0.2898,-0.9418
2505262,0.0507,-0.2894,-0.9419
2505275,0.0475,-0.2889,-0.9430
2505291,0.0442,-0.2886,-0.9447
2505309,0.0410,-0.2883,-0.9470
2505340,0.0364,-0.2882,-0.9518
2505356,0.0352,-0.2885,-0.9539
2505367,0.0350,-0.2887,-0.9547
2505385,0.0354,-0.2894,-0.9561
2505401,0.0367,-0.2904,-0.9567
2505417,0.0389,-0.2914,-0.9565
2505433,0.0417,-0.2925,-0.9561
2505451,0.0448,-0.2936,-0.9551
2505495,0.0518,-0.2970,-0.9519
2505553,0.0487,-0.2991,-0.9520
2505569,0.0459,-0.2991,-0.9531
2505579,0.0444,-0.2991,-0.9537
2505595,0.0415,-0.2987,-0.9550
2505611,0.0389,-0.2983,-0.9562
2505627,0.0371,-0.2980,-0.9570
2505645,0.0360,-0.2979,-0.9575
2505661,0.0359,-0.2979,-0.9574
2505677,0.0366,-0.2981,-0.9567
2505688,0.0372,-0.2982,-0.9561
2505706,0.0397,-0.2991,-0.9536
2505717,0.0406,-0.2993,-0.9526
2505733,0.0426,-0.2999,-0.9506
2505749,0.0443,-0.3005,-0.9490
2505800,0.0461,-0.3016,-0.9473
2505847,0.0449,-0.3011,-0.9515
2505857,0.0447,-0.3009,-0.9525
2505872,0.0442,-0.2999,-0.9545
2505888,0.0439,-0.2987,-0.9562
2505904,0.0437,-0.2972,-0.9576
2505945,0.0428,-0.2931,-0.9586
2505961,0.0424,-0.2917,-0.9580
2505977,0.0420,-0.2906,-0.9572
2505990,0.0417,-0.2902,-0.9565
2506001,0.0414,-0.2896,-0.9554
