timestamp,acc_x,acc_y,acc_z
52533,-0.0343,-0.8048,-0.5909
52645,-0.0354,-0.8046,-0.5936
52655,-0.0353,-0.8044,-0.5944
52671,-0.0349,-0.8042,-0.5955
52687,-0.0345,-0.8040,-0.5964
52703,-0.0344,-0.8038,-0.5970
52721,-0.0343,-0.8038,-0.5973
52737,-0.0342,-0.8038,-0.5972
52747,-0.0342,-0.8040,-0.5969
52763,-0.0342,-0.8041,-0.5961
52779,-0.0343,-0.8042,-0.5950
52808,-0.0344,-0.8046,-0.5924
52824,-0.0344,-0.8048,-0.5911
52840,-0.0345,-0.8049,-0.5898
52870,-0.0345,-0.8051,-0.5878
52886,-0.0345,-0.8051,-0.5874
52902,-0.0345,-0.8049,-0.5869
52912,-0.0344,-0.8047,-0.5868
52923,-0.0344,-0.8046,-0.5869
52939,-0.0343,-0.8044,-0.5875
52949,-0.0342,-0.8043,-0.5879
52965,-0.0339,-0.8042,-0.5890
52994,-0.0331,-0.8047,-0.5918
53008,-0.0328,-0.8048,-0.5925
53024,-0.0323,-0.8053,-0.5938
53034,-0.0320,-0.8055,-0.5942
53049,-0.0315,-0.8060,-0.5951
53065,-0.0311,-0.8066,-0.5956
53081,-0.0309,-0.8073,-0.5957
53097,-0.0308,-0.8080,-0.5955
53107,-0.0306,-0.8085,-0.5952
53123,-0.0303,-0.8098,-0.5941
53139,-0.0297,-0.8115,-0.5922
53177,-0.0282,-0.8171,-0.5835
53206,-0.0287,-0.8231,-0.5754
53222,-0.0289,-0.8268,-0.5729
53233,-0.0292,-0.8287,-0.5723
53251,-0.0289,-0.8320,-0.5726
53267,-0.0280,-0.8336,-0.5753
53283,-0.0264,-0.8323,-0.5802
53299,-0.0245,-0.8276,-0.5869
53317,-0.0232,-0.8199,-0.5955
53333,-0.0227,-0.8098,-0.6051
53349,-0.0242,-0.7977,-0.6155
53359,-0.0255,-0.7910,-0.6206
53375,-0.0298,-0.7765,-0.6300
53403,-0.0405,-0.7445,-0.6415
53417,-0.0431,-0.7368,-0.6418
53432,-0.0477,-0.7228,-0.6388
53450,-0.0515,-0.7120,-0.6299
53477,-0.0564,-0.7047,-0.5950
53493,-0.0575,-0.7096,-0.5709
53511,-0.0575,-0.7206,-0.5450
53525,-0.0564,-0.7372,-0.5201
53540,-0.0554,-0.7474,-0.5088
53556,-0.0527,-0.7705,-0.4897
53567,-0.0494,-0.7955,-0.4772
53613,-0.0419,-0.8517,-0.4788
53629,-0.0398,-0.8666,-0.4922
53642,-0.0381,-0.8759,-0.5115
53658,-0.0366,-0.8793,-0.5352
53674,-0.0350,-0.8774,-0.5609
53690,-0.0336,-0.8713,-0.5865
53700,-0.0328,-0.8671,-0.5985
53716,-0.0312,-0.8571,-0.6200
53732,-0.0297,-0.8462,-0.6367
53748,-0.0275,-0.8359,-0.6481
53791,-0.0187,-0.8180,-0.6538
53802,-0.0165,-0.8158,-0.6516
53818,-0.0115,-0.8124,-0.6443
53859,0.0012,-0.8057,-0.6132
53871,0.0057,-0.8026,-0.5968
53889,0.0094,-0.7990,-0.5787
53905,0.0123,-0.7944,-0.5597
53921,0.0145,-0.7888,-0.5398
53937,0.0161,-0.7830,-0.5194
53955,0.0175,-0.7776,-0.4985
53971,0.0189,-0.7739,-0.4772
53987,0.0211,-0.7729,-0.4553
54005,0.0250,-0.7756,-0.4327
54041,0.0509,-0.8058,-0.3693
54057,0.0706,-0.8296,-0.3383
54085,0.1110,-0.8789,-0.2814
54095,0.1270,-0.8989,-0.2590
54111,0.1615,-0.9435,-0.2092
54127,0.1985,-0.9932,-0.1534
54138,0.2173,-1.0453,-0.0940
54156,0.2725,-1.0969,-0.0343
54172,0.3063,-1.1445,0.0212
54188,0.3356,-1.1847,0.0684
54206,0.3590,-1.2139,0.1027
54242,0.3846,-1.2268,0.1195
54258,0.3866,-1.2063,0.0968
54274,0.3822,-1.1670,0.0504
54292,0.3730,-1.1095,-0.0208
54308,0.3602,-1.0350,-0.1154
54324,0.3444,-0.9459,-0.2292
54340,0.3259,-0.8458,-0.3571
54358,0.3057,-0.7396,-0.4932
54386,0.2648,-0.5300,-0.7734
54399,0.2555,-0.4818,-0.8423
54410,0.2401,-0.3934,-0.9751
54438,0.2267,-0.2863,-1.1533
54453,0.2246,-0.2350,-1.2505
54464,0.2253,-0.2159,-1.2908
54482,0.2319,-0.1869,-1.3726
54498,0.2349,-0.2175,-1.3931
54514,0.2412,-0.1979,-1.3933
54530,0.2473,-0.2240,-1.3762
54549,0.2546,-0.2826,-1.3154
54569,0.2572,-0.3284,-1.2600
54585,0.2576,-0.3748,-1.1995
54601,0.2554,-0.4181,-1.1382
54620,0.2505,-0.4563,-1.0793
54666,0.2202,-0.5389,-0.9294
54700,0.1925,-0.5771,-0.8524
54710,0.1862,-0.5858,-0.8361
54726,0.1755,-0.6033,-0.8062
54742,0.1678,-0.6212,-0.7797
54758,0.1627,-0.6399,-0.7549
54779,0.1577,-0.6686,-0.7179
54795,0.1555,-0.6875,-0.6920
54811,0.1541,-0.7056,-0.6648
54821,0.1537,-0.7145,-0.6506
54832,0.1536,-0.7233,-0.6362
54873,0.1573,-0.7700,-0.5615
54889,0.1610,-0.7914,-0.5315
54907,0.1658,-0.8268,-0.4893
54923,0.1716,-0.8392,-0.4764
54939,0.1786,-0.8644,-0.4534
54955,0.1868,-0.8889,-0.4338
54973,0.2009,-0.9227,-0.4110
54995,0.2101,-0.9420,-0.3995
55011,0.2174,-0.9576,-0.3904
55033,0.2227,-0.9717,-0.3802
55063,0.2139,-0.9700,-0.3728
55076,0.2085,-0.9657,-0.3723
55092,0.1943,-0.9528,-0.3737
55110,0.1766,-0.9341,-0.3788
55126,0.1567,-0.9110,-0.3883
55142,0.1367,-0.8855,-0.4025
55153,0.1183,-0.8596,-0.4213
55162,0.1101,-0.8472,-0.4323
55173,0.1029,-0.8354,-0.4440
55189,0.0917,-0.8143,-0.4692
55205,0.0850,-0.7974,-0.4958
55221,0.0829,-0.7850,-0.5221
55231,0.0834,-0.7804,-0.5347
55258,0.0900,-0.7731,-0.5684
55274,0.0972,-0.7725,-0.5864
55308,0.1182,-0.7791,-0.6150
55318,0.1221,-0.7806,-0.6184
55334,0.1292,-0.7833,-0.6240
55350,0.1349,-0.7848,-0.6285
55366,0.1388,-0.7847,-0.6331
55384,0.1410,-0.7828,-0.6379
55399,0.1414,-0.7794,-0.6439
55413,0.1409,-0.7772,-0.6475
55428,0.1390,-0.7719,-0.6552
55441,0.1361,-0.7660,-0.6633
55467,0.1306,-0.7579,-0.6746
55481,0.1268,-0.7540,-0.6794
55495,0.1249,-0.7528,-0.6808
55513,0.1196,-0.7521,-0.6792
55528,0.1180,-0.7529,-0.6768
55543,0.1156,-0.7556,-0.6692
55559,0.1139,-0.7595,-0.6580
55576,0.1132,-0.7643,-0.6433
55612,0.1158,-0.7786,-0.5901
55628,0.1193,-0.7853,-0.5616
55638,0.1216,-0.7888,-0.5457
55649,0.1244,-0.7927,-0.5286
55665,0.1313,-0.8014,-0.4910
55681,0.1406,-0.8121,-0.4484
55732,0.1835,-0.8684,-0.2887
55748,0.2025,-0.8965,-0.2260
55769,0.2344,-0.9447,-0.1285
55780,0.2457,-0.9618,-0.0969
55796,0.2694,-0.9958,-0.0377
55812,0.2936,-1.0287,0.0131
55830,0.3181,-1.0582,0.0521
55846,0.3419,-1.0829,0.0770
55857,0.3644,-1.1012,0.0861
55873,0.3848,-1.1122,0.0782
55939,0.4294,-1.0638,-0.1278
55957,0.4287,-1.0188,-0.2201
55973,0.4241,-0.9583,-0.3246
55989,0.4164,-0.8845,-0.4377
56005,0.4067,-0.8025,-0.5565
56023,0.3962,-0.7170,-0.6781
56039,0.3864,-0.6326,-0.8005
56057,0.3784,-0.5520,-0.9205
56073,0.3727,-0.4774,-1.0342
56107,0.3649,-0.3542,-1.2206
56121,0.3600,-0.3101,-1.2827
56137,0.3528,-0.2808,-1.3191
56155,0.3428,-0.2678,-1.3287
56171,0.3303,-0.2715,-1.3134
56187,0.3168,-0.2903,-1.2764
56215,0.2969,-0.3417,-1.1924
56225,0.2859,-0.3867,-1.1262
56241,0.2773,-0.4362,-1.0588
56259,0.2715,-0.4862,-0.9952
56275,0.2682,-0.5333,-0.9396
56309,0.2672,-0.6062,-0.8612
56325,0.2673,-0.6284,-0.8397
56341,0.2665,-0.6405,-0.8284
56359,0.2643,-0.6428,-0.8253
56375,0.2606,-0.6372,-0.8279
56391,0.2554,-0.6259,-0.8334
56407,0.2485,-0.6111,-0.8390
56425,0.2407,-0.5956,-0.8418
56436,0.2365,-0.5883,-0.8397
56452,0.2278,-0.5757,-0.8363
56462,0.2188,-0.5681,-0.8243
56478,0.2095,-0.5670,-0.8053
56505,0.1965,-0.5798,-0.7649
56534,0.1863,-0.6104,-0.7139
56563,0.1776,-0.6746,-0.6383
56578,0.1758,-0.7126,-0.6014
56594,0.1759,-0.7516,-0.5671
56610,0.1780,-0.7897,-0.5363
56630,0.1819,-0.8256,-0.5085
56646,0.1874,-0.8584,-0.4835
56671,0.1968,-0.9009,-0.4496
56719,0.2113,-0.9550,-0.3926
56735,0.2144,-0.9634,-0.3772
56745,0.2156,-0.9661,-0.3702
56761,0.2175,-0.9685,-0.3577
56777,0.2189,-0.9683,-0.3470
56793,0.2198,-0.9662,-0.3389
56804,0.2202,-0.9647,-0.3358
56814,0.2212,-0.9612,-0.3322
56842,0.2227,-0.9545,-0.3336
56858,0.2228,-0.9487,-0.3396
56869,0.2224,-0.9453,-0.3440
56914,0.2126,-0.9139,-0.3838
56930,0.2065,-0.9004,-0.3998
56940,0.2032,-0.8934,-0.4078
56956,0.1962,-0.8795,-0.4236
56972,0.1892,-0.8660,-0.4386
56988,0.1827,-0.8533,-0.4526
57006,0.1772,-0.8416,-0.4661
57022,0.1729,-0.8308,-0.4789
57038,0.1699,-0.8212,-0.4913
57054,0.1681,-0.8125,-0.5037
57094,0.1663,-0.7957,-0.5317
57110,0.1658,-0.7911,-0.5410
57155,0.1625,-0.7871,-0.5562
57170,0.1599,-0.7886,-0.5590
57186,0.1570,-0.7913,-0.5607
57202,0.1537,-0.7949,-0.5618
57218,0.1503,-0.7991,-0.5627
57228,0.1486,-0.8013,-0.5634
57244,0.1456,-0.8054,-0.5653
57260,0.1432,-0.8093,-0.5680
57278,0.1416,-0.8126,-0.5718
57315,0.1412,-0.8175,-0.5841
57331,0.1425,-0.8181,-0.5895
57347,0.1443,-0.8179,-0.5945
57357,0.1454,-0.8174,-0.5968
57373,0.1477,-0.8160,-0.6008
57389,0.1498,-0.8142,-0.6039
57405,0.1515,-0.8119,-0.6061
57423,0.1523,-0.8094,-0.6075
57451,0.1508,-0.8030,-0.6085
57466,0.1498,-0.8008,-0.6086
57477,0.1471,-0.7955,-0.6094
57509,0.1405,-0.7832,-0.6122
57525,0.1370,-0.7771,-0.6136
57540,0.1353,-0.7742,-0.6138
57550,0.1321,-0.7692,-0.6123
57564,0.1306,-0.7673,-0.6101
57579,0.1282,-0.7651,-0.6017
57595,0.1266,-0.7659,-0.5865
57613,0.1267,-0.7704,-0.5636
57629,0.1294,-0.7792,-0.5322
57642,0.1359,-0.7922,-0.4927
57658,0.1473,-0.8096,-0.4449
57676,0.1648,-0.8309,-0.3894
57695,0.1884,-0.8560,-0.3258
57711,0.2178,-0.8845,-0.2537
57722,0.2523,-0.9163,-0.1726
57806,0.4565,-1.1090,0.3059
57816,0.4757,-1.1277,0.3455
57832,0.5110,-1.1599,0.4073
57848,0.5414,-1.1820,0.4398
57864,0.5656,-1.1904,0.4362
57882,0.5820,-1.1823,0.3927
57900,0.5895,-1.1562,0.2529
57916,0.5876,-1.1115,0.1880
57932,0.5776,-1.0483,0.0344
57984,0.5024,-0.7180,-0.6611
58000,0.4760,-0.6101,-0.8724
58018,0.4490,-0.5046,-1.0715
58034,0.4214,-0.4065,-1.2471
58062,0.3782,-0.2825,-1.4434
58080,0.3472,-0.2216,-1.5186
58096,0.3137,-0.1821,-1.5453
58106,0.2787,-0.1661,-1.5254
58117,0.2609,-0.1670,-1.4999
58133,0.2261,-0.1855,-1.4227
58167,0.1685,-0.2800,-1.2023
58183,0.1492,-0.3475,-1.0800
58199,0.1370,-0.4218,-0.9614
58209,0.1335,-0.4597,-0.9056
58225,0.1312,-0.5345,-0.8044
58241,0.1339,-0.6045,-0.7197
58257,0.1396,-0.6658,-0.6531
58275,0.1464,-0.7161,-0.6047
58291,0.1523,-0.7540,-0.5735
58309,0.1874,-0.7880,-0.5537
58325,0.1569,-0.7936,-0.5529
58362,0.1459,-0.7919,-0.5763
58390,0.1339,-0.7771,-0.6013
58408,0.1222,-0.7606,-0.6271
58419,0.1190,-0.7555,-0.6350
58435,0.1146,-0.7468,-0.6494
58451,0.1129,-0.7407,-0.6611
58469,0.1145,-0.7379,-0.6694
58485,0.1191,-0.7383,-0.6740
58501,0.1265,-0.7418,-0.6748
58515,0.1357,-0.7477,-0.6722
58552,0.1562,-0.7626,-0.6592
58579,0.1692,-0.7725,-0.6455
58602,0.1777,-0.7788,-0.6324
58618,0.1807,-0.7803,-0.6259
58634,0.1813,-0.7797,-0.6217
58646,0.1799,-0.7770,-0.6202
58664,0.1766,-0.7727,-0.6211
58702,0.1626,-0.7584,-0.6283
58713,0.1592,-0.7556,-0.6299
58767,0.1389,-0.7399,-0.6344
58783,0.1338,-0.7383,-0.6342
58793,0.1299,-0.7356,-0.6337
58809,0.1274,-0.7332,-0.6337
58824,0.1270,-0.7322,-0.6340
58835,0.1272,-0.7300,-0.6360
58851,0.1292,-0.7278,-0.6401
58861,0.1307,-0.7266,-0.6431
58877,0.1350,-0.7241,-0.6510
58893,0.1404,-0.7213,-0.6615
58909,0.1464,-0.7185,-0.6744
58920,0.1494,-0.7172,-0.6818
58965,0.1647,-0.7067,-0.7333
58993,0.1688,-0.6987,-0.7598
59003,0.1694,-0.6957,-0.7681
59019,0.1699,-0.6892,-0.7834
59035,0.1691,-0.6827,-0.7966
59051,0.1675,-0.6765,-0.8071
59069,0.1655,-0.6708,-0.8143
59084,0.1636,-0.6656,-0.8176
59099,0.1620,-0.6610,-0.8162
59114,0.1614,-0.6572,-0.8096
59124,0.1614,-0.6558,-0.8041
59156,0.1637,-0.6558,-0.7689
59169,0.1659,-0.6600,-0.7446
59183,0.1672,-0.6631,-0.7313
59202,0.1719,-0.6755,-0.6896
59218,0.1750,-0.6858,-0.6619
59234,0.1772,-0.6973,-0.6360
59249,0.1779,-0.7032,-0.6239
59267,0.1771,-0.7208,-0.5925
59295,0.1716,-0.7379,-0.5697
59311,0.1659,-0.7491,-0.5601
59351,0.1508,-0.7753,-0.5541
59367,0.1465,-0.7848,-0.5574
59383,0.1439,-0.7938,-0.5624
59393,0.1432,-0.7981,-0.5651
59409,0.1431,-0.8064,-0.5702
59420,0.1437,-0.8103,-0.5724
59436,0.1460,-0.8176,-0.5758
59453,0.1495,-0.8243,-0.5776
59468,0.1541,-0.8302,-0.5779
59484,0.1589,-0.8347,-0.5768
59499,0.1641,-0.8379,-0.5742
59516,0.1687,-0.8400,-0.5702
59534,0.1727,-0.8416,-0.5653
59549,0.1757,-0.8429,-0.5598
59565,0.1779,-0.8441,-0.5547
59628,0.1804,-0.8441,-0.5497
59646,0.1794,-0.8413,-0.5533
59662,0.1776,-0.8362,-0.5587
59674,0.1765,-0.8326,-0.5619
59690,0.1741,-0.8237,-0.5687
59708,0.1699,-0.8075,-0.5801
59724,0.1683,-0.7957,-0.5878
59743,0.1636,-0.7837,-0.5951
59754,0.1619,-0.7781,-0.5984
59808,0.1537,-0.7549,-0.6150
59823,0.1528,-0.7551,-0.6183
59833,0.1528,-0.7562,-0.6200
59848,0.1532,-0.7601,-0.6235
59864,0.1543,-0.7656,-0.6274
59879,0.1550,-0.7686,-0.6296
59907,0.1580,-0.7791,-0.6384
59917,0.1587,-0.7808,-0.6401
59932,0.1598,-0.7827,-0.6425
59949,0.1605,-0.7827,-0.6428
59965,0.1610,-0.7814,-0.6404
60014,0.1615,-0.7765,-0.6134
60030,0.1625,-0.7764,-0.5969
60055,0.1654,-0.7788,-0.5643
60071,0.1685,-0.7827,-0.5374
60086,0.1725,-0.7886,-0.5057
60102,0.1774,-0.7965,-0.4695
60115,0.1802,-0.8013,-0.4497
60131,0.1868,-0.8130,-0.4070
60147,0.1954,-0.8273,-0.3608
60157,0.2009,-0.8354,-0.3365
60194,0.2474,-0.8873,-0.2040
60226,0.3138,-0.9493,-0.0809
60236,0.3348,-0.9686,-0.0481
60252,0.3809,-1.0116,0.0183
60268,0.4308,-1.0583,0.0826
60284,0.4813,-1.1051,0.1401
60302,0.5287,-1.1469,0.1853
60318,0.5692,-1.1780,0.2128
60334,0.5991,-1.1925,0.2175
60350,0.6155,-1.1858,0.1960
60360,0.6178,-1.1736,0.1746
60390,0.5878,-1.0649,0.0159
60406,0.5518,-0.9777,-0.1067
60422,0.5067,-0.8743,-0.2573
60432,0.4822,-0.8182,-0.3425
60443,0.4574,-0.7604,-0.4338
60459,0.4091,-0.6421,-0.6312
60475,0.3657,-0.5254,-0.8400
60493,0.3132,-0.3662,-1.1438
60539,0.2500,-0.1844,-1.5017
60557,0.2267,-0.1500,-1.5627
60567,0.2021,-0.1382,-1.5725
60593,0.1626,-0.1592,-1.5017
60609,0.1355,-0.1949,-1.4109
60642,0.0856,-0.3042,-1.1761
60658,0.0668,-0.3706,-1.0546
60674,0.0541,-0.4407,-0.9423
60684,0.0503,-0.4760,-0.8915
60700,0.0482,-0.5455,-0.8032
60713,0.0497,-0.5790,-0.7662
60729,0.0571,-0.6411,-0.7064
60747,0.0762,-0.7180,-0.6497
60762,0.0837,-0.7384,-0.6382
60773,0.0991,-0.7709,-0.6240
60789,0.1138,-0.7924,-0.6187
60805,0.1270,-0.8044,-0.6189
60871,0.1569,-0.7970,-0.6312
60881,0.1584,-0.7936,-0.6313
60897,0.1605,-0.7863,-0.6301
60912,0.1614,-0.7792,-0.6270
60925,0.1614,-0.7759,-0.6248
60943,0.1608,-0.7668,-0.6167
60958,0.1594,-0.7644,-0.6138
60980,0.1565,-0.7582,-0.6051
60996,0.1545,-0.7550,-0.6006
61038,0.1515,-0.7504,-0.5972
61054,0.1511,-0.7496,-0.5995
61065,0.1510,-0.7494,-0.6039
61075,0.1509,-0.7490,-0.6067
61091,0.1505,-0.7488,-0.6135
61105,0.1500,-0.7485,-0.6173
61133,0.1467,-0.7474,-0.6343
61146,0.1455,-0.7472,-0.6385
61162,0.1425,-0.7466,-0.6465
61180,0.1367,-0.7461,-0.6560
61196,0.1346,-0.7460,-0.6602
61226,0.1263,-0.7455,-0.6630
61239,0.1228,-0.7446,-0.6632
61255,0.1198,-0.7430,-0.6628
61273,0.1173,-0.7405,-0.6625
61289,0.1154,-0.7371,-0.6632
61305,0.1139,-0.7327,-0.6660
61321,0.1125,-0.7275,-0.6718
61339,0.1116,-0.7218,-0.6813
61355,0.1106,-0.7156,-0.6948
61371,0.1101,-0.7090,-0.7120
61385,0.1101,-0.7023,-0.7324
61421,0.1119,-0.6902,-0.7778
61449,0.1149,-0.6842,-0.8112
61467,0.1194,-0.6814,-0.8390
61482,0.1215,-0.6812,-0.8462
61498,0.1262,-0.6809,-0.8567
61514,0.1317,-0.6813,-0.8608
61532,0.1398,-0.6820,-0.8529
61548,0.1422,-0.6829,-0.8379
61564,0.1460,-0.6835,-0.8275
61582,0.1495,-0.6854,-0.7870
61619,0.1512,-0.6885,-0.7186
61634,0.1510,-0.6904,-0.6824
61650,0.1499,-0.6930,-0.6473
61668,0.1479,-0.6957,-0.6149
61684,0.1448,-0.6984,-0.5863
61700,0.1406,-0.7012,-0.5627
61716,0.1353,-0.7040,-0.5447
61727,0.1322,-0.7057,-0.5377
61761,0.1163,-0.7170,-0.5229
61777,0.1136,-0.7245,-0.5247
61788,0.1097,-0.7292,-0.5269
61834,0.1110,-0.7682,-0.5516
61850,0.1166,-0.7755,-0.5568
61860,0.1246,-0.7893,-0.5670
61876,0.1346,-0.8013,-0.5767
61890,0.1401,-0.8062,-0.5811
61905,0.1515,-0.8134,-0.5889
61923,0.1627,-0.8170,-0.5951
61938,0.1732,-0.8173,-0.5999
61952,0.1826,-0.8151,-0.6030
61967,0.1908,-0.8114,-0.6052
61985,0.1974,-0.8074,-0.6066
61996,0.2001,-0.8054,-0.6072
62011,0.2043,-0.8020,-0.6083
62027,0.2070,-0.7991,-0.6097
62073,0.2067,-0.7943,-0.6189
62118,0.1978,-0.7924,-0.6290
62133,0.1929,-0.7915,-0.6320
62150,0.1881,-0.7906,-0.6339
62166,0.1837,-0.7898,-0.6348
62182,0.1803,-0.7892,-0.6342
62200,0.1780,-0.7892,-0.6322
62240,0.1771,-0.7922,-0.6228
62252,0.1781,-0.7948,-0.6180
62267,0.1787,-0.7963,-0.6156
62285,0.1803,-0.8010,-0.6085
62301,0.1808,-0.8037,-0.6041
62316,0.1809,-0.8047,-0.6019
62332,0.1805,-0.8058,-0.5977
62369,0.1760,-0.8040,-0.5846
62385,0.1726,-0.8021,-0.5770
62403,0.1685,-0.8002,-0.5677
62436,0.1593,-0.7963,-0.5436
62452,0.1550,-0.7949,-0.5288
62468,0.1516,-0.7944,-0.5123
62478,0.1503,-0.7946,-0.5034
62494,0.1486,-0.7961,-0.4841
62510,0.1484,-0.7996,-0.4633
62526,0.1500,-0.8052,-0.4408
62544,0.1537,-0.8126,-0.4171
62560,0.1598,-0.8220,-0.3923
62576,0.1682,-0.8333,-0.3668
62592,0.1791,-0.8466,-0.3411
62611,0.1923,-0.8708,-0.3043
62645,0.2356,-0.9076,-0.2650
62673,0.2708,-0.9354,-0.2450
62683,0.2843,-0.9447,-0.2395
62699,0.3140,-0.9642,-0.2274
62715,0.3463,-0.9854,-0.2107
62731,0.3798,-1.0083,-0.1844
62742,0.4126,-1.0326,-0.1449
62757,0.4281,-1.0449,-0.1194
62773,0.4564,-1.0690,-0.0574
62789,0.4800,-1.0906,0.0159
62805,0.4979,-1.1074,0.0936
62815,0.5048,-1.1132,0.1315
62827,0.5138,-1.1179,0.1990
62843,0.5168,-1.1115,0.2477
62859,0.5138,-1.0911,0.2690
62924,0.4464,-0.8313,-0.0225
62941,0.4204,-0.7228,-0.1893
62977,0.3702,-0.4930,-0.5922
62992,0.3502,-0.3894,-0.8085
63010,0.3351,-0.3020,-1.0188
63028,0.3243,-0.2040,-1.2927
63044,0.3162,-0.1918,-1.3662
63060,0.3082,-0.1731,-1.4780
63109,0.2666,-0.2542,-1.5009
63125,0.2469,-0.3149,-1.4187
63136,0.2263,-0.3846,-1.3093
63146,0.2162,-0.4213,-1.2487
63161,0.1968,-0.4948,-1.1227
63177,0.1794,-0.5653,-1.0004
63193,0.1647,-0.6295,-0.8909
63212,0.1526,-0.6851,-0.8003
63230,0.1433,-0.7300,-0.7321
63246,0.1365,-0.7634,-0.6864
63258,0.1317,-0.7852,-0.6610
63286,0.1266,-0.7979,-0.6520
63318,0.1204,-0.7872,-0.6675
63334,0.1171,-0.7754,-0.6770
63350,0.1140,-0.7626,-0.6838
63360,0.1127,-0.7563,-0.6857
63376,0.1113,-0.7456,-0.6859
63392,0.1117,-0.7380,-0.6813
63408,0.1143,-0.7343,-0.6727
63419,0.1163,-0.7338,-0.6674
63429,0.1189,-0.7341,-0.6549
63443,0.1251,-0.7372,-0.6482
63459,0.1326,-0.7424,-0.6348
63475,0.1410,-0.7489,-0.6221
63512,0.1622,-0.7633,-0.5997
63528,0.1696,-0.7661,-0.5957
63543,0.1726,-0.7666,-0.5947
63561,0.1792,-0.7643,-0.5961
63589,0.1814,-0.7573,-0.6033
63605,0.1804,-0.7510,-0.6110
63623,0.1779,-0.7439,-0.6206
63641,0.1738,-0.7366,-0.6317
63656,0.1686,-0.7296,-0.6433
63672,0.1625,-0.7233,-0.6547
63709,0.1460,-0.7120,-0.6776
63725,0.1404,-0.7097,-0.6853
63741,0.1361,-0.7083,-0.6932
63754,0.1345,-0.7078,-0.6976
63766,0.1328,-0.7070,-0.7079
63782,0.1326,-0.7059,-0.7205
63798,0.1337,-0.7045,-0.7354
63815,0.1356,-0.7024,-0.7524
63831,0.1383,-0.7000,-0.7708
63850,0.1417,-0.6974,-0.7893
63866,0.1458,-0.6948,-0.8068
63911,0.1595,-0.6876,-0.8375
63957,0.1779,-0.6812,-0.8275
63972,0.1816,-0.6818,-0.8096
63982,0.1830,-0.6827,-0.7982
63998,0.1846,-0.6855,-0.7716
64013,0.1855,-0.6887,-0.7412
64028,0.1866,-0.6918,-0.7091
64046,0.1885,-0.6941,-0.6771
64057,0.1897,-0.6951,-0.6617
64072,0.1929,-0.6969,-0.6327
64088,0.1963,-0.6991,-0.6067
64099,0.1981,-0.7004,-0.5950
64141,0.2057,-0.7137,-0.5444
64157,0.2059,-0.7172,-0.5394
64174,0.2043,-0.7295,-0.5304
64196,0.2014,-0.7390,-0.5295
64212,0.1974,-0.7488,-0.5322
64228,0.1927,-0.7585,-0.5381
64238,0.1904,-0.7634,-0.5420
64254,0.1860,-0.7728,-0.5511
64269,0.1821,-0.7819,-0.5614
64285,0.1788,-0.7905,-0.5719
64325,0.1721,-0.8081,-0.5930
64341,0.1700,-0.8127,-0.5978
64357,0.1681,-0.8160,-0.6000
64370,0.1672,-0.8184,-0.5995
64386,0.1656,-0.8193,-0.5985
64402,0.1644,-0.8208,-0.5947
64418,0.1639,-0.8220,-0.5895
64428,0.1642,-0.8229,-0.5833
64443,0.1647,-0.8231,-0.5801
64459,0.1664,-0.8235,-0.5740
64469,0.1685,-0.8236,-0.5685
64511,0.1741,-0.8214,-0.5605
64541,0.1758,-0.8181,-0.5608
64557,0.1759,-0.8154,-0.5632
64573,0.1752,-0.8129,-0.5670
64583,0.1735,-0.8109,-0.5719
64599,0.1724,-0.8099,-0.5774
64626,0.1667,-0.8110,-0.5859
64649,0.1622,-0.8151,-0.5938
64665,0.1593,-0.8190,-0.5980
64675,0.1581,-0.8210,-0.5999
64686,0.1569,-0.8234,-0.6014
64702,0.1548,-0.8282,-0.6039
64731,0.1521,-0.8380,-0.6058
64747,0.1511,-0.8414,-0.6056
64762,0.1505,-0.8424,-0.6052
64777,0.1487,-0.8423,-0.6041
64813,0.1365,-0.8273,-0.5996
64829,0.1279,-0.8152,-0.5968
64839,0.1230,-0.8081,-0.5951
64855,0.1127,-0.7926,-0.5909
64871,0.1025,-0.7766,-0.5857
64882,0.0980,-0.7690,-0.5826
64936,0.0885,-0.7412,-0.5494
64952,0.0946,-0.7451,-0.5339
64962,0.0991,-0.7493,-0.5248
64978,0.1105,-0.7620,-0.5031
64994,0.1243,-0.7800,-0.4766
65010,0.1401,-0.8026,-0.4453
65028,0.1578,-0.8287,-0.4100
65039,0.1674,-0.8428,-0.3914
65055,0.1881,-0.8719,-0.3524
65071,0.2111,-0.9015,-0.3127
65123,0.3090,-0.9875,-0.1699
65152,0.3582,-1.0132,-0.1021
65162,0.3750,-1.0205,-0.0778
65178,0.4095,-1.0334,-0.0265
65194,0.4443,-1.0447,0.0271
65210,0.4790,-1.0542,0.0806
65229,0.5286,-1.0646,0.1536
65245,0.5438,-1.0668,0.1913
65261,0.5713,-1.0686,0.2056
65277,0.5936,-1.0657,0.2225
65290,0.6090,-1.0558,0.2223
65322,0.6133,-1.0056,0.1625
65338,0.5994,-0.9617,0.0980
65354,0.5745,-0.9021,0.0056
65367,0.5586,-0.8658,-0.0525
65378,0.5227,-0.7798,-0.1942
65394,0.4857,-0.6788,-0.3705
65410,0.4524,-0.5704,-0.5768
65428,0.4249,-0.4646,-0.8025
65467,0.3745,-0.2633,-1.3374
65483,0.3534,-0.2178,-1.4923
65493,0.3411,-0.2028,-1.5502
65503,0.3271,-0.1926,-1.5938
65519,0.2944,-0.1863,-1.6370
65535,0.2561,-0.1971,-1.6239
65551,0.2145,-0.2240,-1.5616
65580,0.1528,-0.2909,-1.4015
65596,0.1173,-0.3500,-1.2695
65612,0.0889,-0.4171,-1.1322
65622,0.0687,-0.4883,-1.0002
65637,0.0618,-0.5240,-0.9390
65653,0.0533,-0.5936,-0.8296
65668,0.0514,-0.6573,-0.7405
65679,0.0541,-0.7120,-0.6732
65689,0.0568,-0.7352,-0.6476
65707,0.0638,-0.7726,-0.6115
65723,0.0721,-0.7974,-0.5928
65759,0.0874,-0.8120,-0.5927
65788,0.0952,-0.7930,-0.6157
65801,0.0956,-0.7854,-0.6277
65817,0.0944,-0.7692,-0.6329
65835,0.0895,-0.7466,-0.6436
65851,0.0857,-0.7350,-0.6465
65866,0.0841,-0.7306,-0.6469
65882,0.0819,-0.7251,-0.6461
65900,0.0824,-0.7247,-0.6434
65914,0.0837,-0.7263,-0.6426
65930,0.0878,-0.7314,-0.6416
65946,0.0933,-0.7379,-0.6416
66000,0.1165,-0.7540,-0.6488
66016,0.1223,-0.7544,-0.6522
66026,0.1250,-0.7539,-0.6541
66062,0.1338,-0.7479,-0.6621
66073,0.1371,-0.7432,-0.6669
66091,0.1399,-0.7379,-0.6720
66107,0.1426,-0.7327,-0.6777
66117,0.1439,-0.7305,-0.6805
66133,0.1467,-0.7271,-0.6860
66149,0.1493,-0.7256,-0.6907
66190,0.1538,-0.7312,-0.6978
66205,0.1548,-0.7356,-0.6992
66223,0.1555,-0.7400,-0.7000
66239,0.1561,-0.7434,-0.7004
66255,0.1569,-0.7455,-0.7012
66271,0.1580,-0.7452,-0.7030
66289,0.1599,-0.7421,-0.7067
66303,0.1628,-0.7352,-0.7125
66321,0.1672,-0.7249,-0.7202
66337,0.1727,-0.7122,-0.7285
66365,0.1815,-0.6927,-0.7388
66395,0.1896,-0.6744,-0.7421
66411,0.1910,-0.6707,-0.7378
66427,0.1904,-0.6709,-0.7292
66437,0.1892,-0.6726,-0.7234
66453,0.1847,-0.6787,-0.7090
66469,0.1774,-0.6881,-0.6912
66485,0.1674,-0.6997,-0.6709
66506,0.1481,-0.7197,-0.6379
66524,0.1335,-0.7340,-0.6156
66540,0.1191,-0.7488,-0.5939
66556,0.1058,-0.7637,-0.5740
66585,0.0902,-0.7860,-0.5498
66601,0.0841,-0.7999,-0.5386
66617,0.0820,-0.8123,-0.5319
66641,0.0867,-0.8269,-0.5291
66669,0.0981,-0.8389,-0.5345
66685,0.1079,-0.8413,-0.5389
66700,0.1180,-0.8416,-0.5411
66716,0.1278,-0.8409,-0.5452
66726,0.1366,-0.8391,-0.5483
66742,0.1405,-0.8380,-0.5508
66779,0.1537,-0.8322,-0.5538
66795,0.1565,-0.8304,-0.5552
66807,0.1577,-0.8297,-0.5559
66825,0.1606,-0.8286,-0.5593
66840,0.1616,-0.8286,-0.5609
66856,0.1639,-0.8287,-0.5646
66872,0.1666,-0.8292,-0.5691
66890,0.1711,-0.8300,-0.5767
66905,0.1727,-0.8301,-0.5792
66921,0.1755,-0.8302,-0.5844
66932,0.1776,-0.8297,-0.5887
66943,0.1782,-0.8292,-0.5906
67009,0.1704,-0.8113,-0.5958
67019,0.1683,-0.8075,-0.5958
67035,0.1642,-0.7993,-0.5956
67051,0.1602,-0.7913,-0.5952
67067,0.1567,-0.7839,-0.5942
67085,0.1538,-0.7778,-0.5920
67101,0.1517,-0.7738,-0.5878
67117,0.1501,-0.7725,-0.5815
67135,0.1498,-0.7762,-0.5686
67184,0.1558,-0.7970,-0.5420
67199,0.1610,-0.8079,-0.5310
67218,0.1715,-0.8242,-0.5145
67234,0.1797,-0.8344,-0.5028
67249,0.1840,-0.8392,-0.4966
67288,0.2052,-0.8589,-0.4580
67298,0.2092,-0.8619,-0.4482
67315,0.2212,-0.8691,-0.4143
67331,0.2252,-0.8711,-0.3871
67341,0.2338,-0.8750,-0.3723
67378,0.2535,-0.8850,-0.3066
67394,0.2657,-0.8920,-0.2717
67410,0.2802,-0.9003,-0.2369
67420,0.2882,-0.9048,-0.2197
67436,0.3059,-0.9146,-0.1857
67452,0.3253,-0.9247,-0.1522
67468,0.3458,-0.9354,-0.1191
67486,0.3669,-0.9465,-0.0868
67502,0.3882,-0.9579,-0.0560
67518,0.4094,-0.9694,-0.0284
67534,0.4303,-0.9807,-0.0059
67545,0.4506,-0.9922,0.0098
67577,0.4882,-1.0143,0.0148
67612,0.5178,-1.0269,-0.0183
67622,0.5229,-1.0265,-0.0325
67633,0.5267,-1.0243,-0.0491
67649,0.5291,-1.0121,-0.0903
67665,0.5237,-0.9858,-0.1442
67683,0.5099,-0.9413,-0.2145
67698,0.4874,-0.8755,-0.3051
67714,0.4576,-0.7881,-0.4181
67730,0.4226,-0.6830,-0.5521
67770,0.3337,-0.3997,-0.9369
67786,0.3055,-0.3052,-1.0854
67802,0.2838,-0.2324,-1.2159
67817,0.2681,-0.1837,-1.3203
67833,0.2566,-0.1581,-1.3931
67849,0.2467,-0.1525,-1.4315
67865,0.2361,-0.1633,-1.4355
67875,0.2299,-0.1737,-1.4255
67911,0.1978,-0.2404,-1.3204
67927,0.1787,-0.2854,-1.2411
67937,0.1598,-0.3362,-1.1537
67956,0.1429,-0.3915,-1.0648
67967,0.1356,-0.4202,-1.0217
67983,0.1240,-0.4789,-0.9408
68048,0.1101,-0.6844,-0.7207
68066,0.1116,-0.7180,-0.6913
68082,0.1136,-0.7423,-0.6699
68098,0.1161,-0.7578,-0.6548
68114,0.1189,-0.7655,-0.6445
68132,0.1219,-0.7667,-0.6376
68148,0.1250,-0.7632,-0.6332
68159,0.1281,-0.7565,-0.6302
68175,0.1310,-0.7479,-0.6284
68223,0.1383,-0.7279,-0.6274
68251,0.1447,-0.7200,-0.6324
68261,0.1462,-0.7192,-0.6348
68277,0.1497,-0.7188,-0.6409
68293,0.1528,-0.7190,-0.6487
68309,0.1554,-0.7192,-0.6577
68322,0.1570,-0.7186,-0.6675
68332,0.1572,-0.7179,-0.6725
68348,0.1566,-0.7155,-0.6826
68370,0.1547,-0.7115,-0.6973
68386,0.1516,-0.7062,-0.7020
68416,0.1439,-0.6924,-0.7203
68432,0.1400,-0.6852,-0.7286
68448,0.1367,-0.6792,-0.7355
68458,0.1353,-0.6769,-0.7383
68474,0.1328,-0.6743,-0.7422
68490,0.1313,-0.6748,-0.7439
68506,0.1310,-0.6782,-0.7435
68524,0.1317,-0.6841,-0.7417
68552,0.1372,-0.6995,-0.7352
68561,0.1393,-0.7036,-0.7330
68572,0.1414,-0.7075,-0.7307
68612,0.1520,-0.7245,-0.7156
68628,0.1552,-0.7286,-0.7079
68639,0.1565,-0.7300,-0.7037
68658,0.1594,-0.7308,-0.6896
68673,0.1602,-0.7292,-0.6790
68689,0.1614,-0.7281,-0.6733
68705,0.1630,-0.7255,-0.6617
68721,0.1649,-0.7229,-0.6501
68731,0.1676,-0.7211,-0.6389
68746,0.1691,-0.7206,-0.6337
68762,0.1720,-0.7207,-0.6238
68773,0.1747,-0.7220,-0.6152
68789,0.1768,-0.7242,-0.6084
68818,0.1776,-0.7288,-0.6012
68831,0.1764,-0.7323,-0.5985
68870,0.1672,-0.7408,-0.5969
68880,0.1646,-0.7423,-0.5974
68896,0.1589,-0.7452,-0.5991
68912,0.1534,-0.7482,-0.6017
68923,0.1510,-0.7496,-0.6031
68941,0.1469,-0.7529,-0.6062
68957,0.1438,-0.7570,-0.6095
68976,0.1418,-0.7654,-0.6145
68992,0.1420,-0.7688,-0.6179
69038,0.1509,-0.7938,-0.6248
69054,0.1558,-0.8029,-0.6259
69064,0.1583,-0.8073,-0.6260
69080,0.1632,-0.8156,-0.6251
69096,0.1677,-0.8228,-0.6232
69112,0.1718,-0.8287,-0.6204
69130,0.1754,-0.8334,-0.6173
69166,0.1813,-0.8413,-0.6094
69177,0.1815,-0.8423,-0.6074
69227,0.1735,-0.8445,-0.5894
69242,0.1671,-0.8431,-0.5798
69260,0.1595,-0.8402,-0.5684
69275,0.1515,-0.8358,-0.5551
69286,0.1475,-0.8333,-0.5476
69302,0.1398,-0.8276,-0.5312
69317,0.1329,-0.8218,-0.5126
69327,0.1300,-0.8191,-0.5024
69340,0.1254,-0.8151,-0.4803
69356,0.1224,-0.8137,-0.4559
69372,0.1219,-0.8158,-0.4296
69382,0.1228,-0.8182,-0.4159
69412,0.1344,-0.8351,-0.3604
69428,0.1453,-0.8462,-0.3331
69444,0.1589,-0.8579,-0.3064
69474,0.1836,-0.8756,-0.2657
69490,0.2020,-0.8875,-0.2373
69506,0.2213,-0.9001,-0.2068
69516,0.2416,-0.9143,-0.1742
69532,0.2520,-0.9299,-0.1401
69548,0.2733,-0.9384,-0.1228
69564,0.2955,-0.9557,-0.0881
69575,0.3186,-0.9733,-0.0548
69607,0.3662,-1.0055,0.0043
69622,0.3779,-1.0125,0.0167
69638,0.4001,-1.0243,0.0386
69651,0.4203,-1.0333,0.0554
69666,0.4375,-1.0391,0.0668
69682,0.4513,-1.0414,0.0721
69697,0.4611,-1.0404,0.0713
69714,0.4662,-1.0365,0.0640
69730,0.4661,-1.0294,0.0500
69746,0.4604,-1.0187,0.0298
69774,0.4415,-0.9937,-0.0117
69784,0.4326,-0.9825,-0.0283
69795,0.4110,-0.9562,-0.0660
69811,0.3854,-0.9244,-0.1101
69826,0.3713,-0.9069,-0.1349
69842,0.3417,-0.8679,-0.1913
69877,0.2667,-0.7418,-0.3873
69893,0.2407,-0.6747,-0.4950
69909,0.2190,-0.5980,-0.6191
69919,0.2100,-0.5571,-0.6860
69935,0.1964,-0.4740,-0.8247
69951,0.1893,-0.3958,-0.9628
69964,0.1882,-0.3610,-1.0288
69981,0.1904,-0.3041,-1.1494
70000,0.2012,-0.2563,-1.2886
70016,0.2097,-0.2490,-1.3456
70033,0.2158,-0.2579,-1.3706
70079,0.2103,-0.3293,-1.3016
70113,0.1874,-0.4200,-1.1118
70123,0.1749,-0.4718,-1.0692
70139,0.1643,-0.5253,-0.9858
70155,0.1567,-0.5779,-0.9089
70171,0.1527,-0.6278,-0.8416
70189,0.1519,-0.6732,-0.7849
70200,0.1523,-0.6937,-0.7606
70211,0.1549,-0.7300,-0.7195
70226,0.1566,-0.7454,-0.7025
70242,0.1606,-0.7708,-0.6744
70283,0.1714,-0.8016,-0.6320
70299,0.1752,-0.8021,-0.6227
70317,0.1782,-0.7971,-0.6139
70333,0.1802,-0.7878,-0.6118
70349,0.1808,-0.7758,-0.6088
70362,0.1799,-0.7620,-0.6066
70380,0.1775,-0.7482,-0.6049
70419,0.1677,-0.7208,-0.6045
70433,0.1633,-0.7140,-0.6071
70463,0.1576,-0.7081,-0.6149
70479,0.1545,-0.7064,-0.6230
70495,0.1521,-0.7061,-0.6332
70505,0.1512,-0.7063,-0.6390
70521,0.1497,-0.7074,-0.6517
70532,0.1486,-0.7091,-0.6659
70548,0.1478,-0.7109,-0.6815
70566,0.1476,-0.7124,-0.6984
70582,0.1479,-0.7130,-0.7159
70598,0.1487,-0.7124,-0.7336
70614,0.1494,-0.7106,-0.7505
70654,0.1492,-0.7010,-0.7809
70673,0.1475,-0.6967,-0.7858
70708,0.1414,-0.6882,-0.7820
70724,0.1375,-0.6846,-0.7751
70739,0.1335,-0.6812,-0.7666
70755,0.1302,-0.6779,-0.7576
70771,0.1282,-0.6746,-0.7485
70784,0.1276,-0.6719,-0.7400
70799,0.1278,-0.6710,-0.7358
70815,0.1295,-0.6704,-0.7279
70833,0.1349,-0.6722,-0.7163
70863,0.1438,-0.6759,-0.7054
70877,0.1512,-0.6781,-0.6985
70893,0.1594,-0.6797,-0.6910
70911,0.1676,-0.6803,-0.6829
70927,0.1747,-0.6803,-0.6740
70943,0.1799,-0.6801,-0.6646
70959,0.1829,-0.6799,-0.6554
70977,0.1838,-0.6803,-0.6471
71012,0.1809,-0.6849,-0.6346
71028,0.1776,-0.6902,-0.6305
71077,0.1628,-0.7161,-0.6222
71092,0.1569,-0.7264,-0.6198
71102,0.1538,-0.7319,-0.6185
71118,0.1481,-0.7438,-0.6158
71133,0.1436,-0.7566,-0.6129
71148,0.1410,-0.7701,-0.6099
71165,0.1405,-0.7838,-0.6064
71181,0.1420,-0.7972,-0.6031
71197,0.1453,-0.8093,-0.5997
71208,0.1475,-0.8148,-0.5979
71224,0.1530,-0.8239,-0.5942
71235,0.1595,-0.8308,-0.5898
71245,0.1631,-0.8336,-0.5873
71261,0.1703,-0.8385,-0.5811
71277,0.1772,-0.8433,-0.5731
71326,0.1986,-0.8589,-0.5414
71354,0.2135,-0.8677,-0.5253
71364,0.2194,-0.8707,-0.5157
71380,0.2327,-0.8763,-0.5114
71393,0.2471,-0.8809,-0.5028
71409,0.2620,-0.8843,-0.4935
71427,0.2758,-0.8867,-0.4825
71443,0.2874,-0.8887,-0.4690
71453,0.2920,-0.8894,-0.4613
71469,0.2987,-0.8904,-0.4441
71485,0.3021,-0.8904,-0.4252
71515,0.3015,-0.8878,-0.3864
71531,0.2988,-0.8859,-0.3678
71542,0.2972,-0.8848,-0.3589
71560,0.2937,-0.8832,-0.3420
71576,0.2899,-0.8823,-0.3260
71592,0.2860,-0.8822,-0.3107
71608,0.2820,-0.8827,-0.2953
71626,0.2777,-0.8845,-0.2711
71661,0.2678,-0.8899,-0.2366
71671,0.2666,-0.8920,-0.2279
71708,0.2668,-0.9056,-0.1907
71724,0.2688,-0.9086,-0.1792
71739,0.2748,-0.9147,-0.1740
71756,0.2837,-0.9216,-0.1637
71772,0.2952,-0.9303,-0.1526
71788,0.3086,-0.9410,-0.1398
71804,0.3234,-0.9535,-0.1248
71822,0.3386,-0.9666,-0.1082
71838,0.3534,-0.9790,-0.0914
71854,0.3665,-0.9894,-0.0760
71865,0.3765,-0.9960,-0.0640
71876,0.3799,-0.9972,-0.0598
71908,0.3817,-0.9828,-0.0603
71921,0.3745,-0.9634,-0.0745
71936,0.3687,-0.9513,-0.0859
71964,0.3312,-0.8907,-0.1652
71974,0.3192,-0.8727,-0.1940
71990,0.2943,-0.8323,-0.2631
72006,0.2712,-0.7856,-0.3475
72022,0.2532,-0.7333,-0.4469
72040,0.2428,-0.6769,-0.5590
72056,0.2410,-0.6182,-0.6791
72072,0.2469,-0.5599,-0.8013
72083,0.2523,-0.5320,-0.8612
72137,0.3007,-0.3816,-1.2026
72153,0.3055,-0.3527,-1.2617
72163,0.3047,-0.3400,-1.2832
72174,0.3015,-0.3181,-1.3090
72190,0.2881,-0.3093,-1.3131
72206,0.2664,-0.2970,-1.3046
72224,0.2236,-0.2966,-1.2529
72239,0.2083,-0.3024,-1.2272
72312,0.1122,-0.4799,-0.9159
72356,0.1035,-0.6360,-0.7406
72372,0.1056,-0.6760,-0.6987
72390,0.1086,-0.7074,-0.6663
72406,0.1124,-0.7296,-0.6432
72422,0.1167,-0.7430,-0.6294
72434,0.1190,-0.7467,-0.6257
72452,0.1234,-0.7487,-0.6554
72468,0.1276,-0.7448,-0.6289
72484,0.1311,-0.7363,-0.6383
72500,0.1337,-0.7255,-0.6504
72511,0.1354,-0.7140,-0.6635
72521,0.1360,-0.7086,-0.6698
72531,0.1366,-0.7039,-0.6760
72547,0.1379,-0.6965,-0.6873
72569,0.1412,-0.6920,-0.7006
72606,0.1486,-0.6948,-0.7119
72622,0.1531,-0.6969,-0.7155
72638,0.1575,-0.6974,-0.7178
72648,0.1594,-0.6968,-0.7186
72664,0.1628,-0.6938,-0.7194
72691,0.1665,-0.6818,-0.7191
72714,0.1672,-0.6705,-0.7198
72738,0.1677,-0.6639,-0.7218
72753,0.1681,-0.6592,-0.7253
72791,0.1699,-0.6572,-0.7422
72807,0.1709,-0.6600,-0.7516
72823,0.1719,-0.6642,-0.7618
72833,0.1724,-0.6665,-0.7671
72844,0.1729,-0.6691,-0.7723
72880,0.1754,-0.6842,-0.7933
72901,0.1760,-0.6918,-0.7982
72917,0.1761,-0.6996,-0.8003
72935,0.1759,-0.7092,-0.7972
72948,0.1758,-0.7114,-0.7943
72985,0.1758,-0.7173,-0.7653
73000,0.1758,-0.7180,-0.7567
73016,0.1759,-0.7194,-0.7377
73034,0.1763,-0.7225,-0.7057
73049,0.1763,-0.7239,-0.6946
73065,0.1761,-0.7272,-0.6730
73081,0.1755,-0.7306,-0.6527
73099,0.1733,-0.7346,-0.6270
73115,0.1722,-0.7360,-0.6135
73131,0.1692,-0.7361,-0.6082
73143,0.1653,-0.7356,-0.5999
73208,0.1465,-0.7303,-0.5933
73243,0.1445,-0.7346,-0.5975
73257,0.1464,-0.7400,-0.5983
73273,0.1494,-0.7477,-0.5966
73289,0.1531,-0.7576,-0.5912
73305,0.1571,-0.7694,-0.5818
73315,0.1591,-0.7759,-0.5756
73331,0.1632,-0.7897,-0.5602
73349,0.1675,-0.8042,-0.5421
73365,0.1720,-0.8188,-0.5223
73414,0.1893,-0.8553,-0.4655
73430,0.1968,-0.8640,-0.4504
73448,0.2047,-0.8711,-0.4382
73460,0.2123,-0.8770,-0.4287
73476,0.2191,-0.8817,-0.4219
73492,0.2249,-0.8857,-0.4177
73510,0.2291,-0.8888,-0.4160
73538,0.2330,-0.8916,-0.4170
73550,0.2343,-0.8923,-0.4192
73560,0.2346,-0.8925,-0.4205
73597,0.2357,-0.8920,-0.4280
73613,0.2372,-0.8917,-0.4327
73629,0.2397,-0.8916,-0.4380
73639,0.2437,-0.8917,-0.4437
73654,0.2461,-0.8920,-0.4465
73670,0.2516,-0.8923,-0.4517
73686,0.2576,-0.8925,-0.4554
73704,0.2662,-0.8915,-0.4570
73720,0.2688,-0.8906,-0.4543
73736,0.2727,-0.8881,-0.4517
73751,0.2747,-0.8840,-0.4440
73761,0.2748,-0.8787,-0.4333
73791,0.2701,-0.8680,-0.4127
73807,0.2657,-0.8597,-0.3962
73853,0.2537,-0.8386,-0.3309
73863,0.2527,-0.8376,-0.3174
73874,0.2523,-0.8378,-0.3030
73890,0.2534,-0.8418,-0.2725
73906,0.2576,-0.8508,-0.2401
73927,0.2699,-0.8721,-0.1912
73943,0.2825,-0.8896,-0.1591
73959,0.2980,-0.9080,-0.1277
73977,0.3159,-0.9257,-0.0967
74007,0.3545,-0.9548,-0.0337
74022,0.3641,-0.9602,-0.0176
74038,0.3826,-0.9686,0.0144
74048,0.4004,-0.9740,0.0452
74063,0.4091,-0.9758,0.0596
74079,0.4261,-0.9786,0.0848
74095,0.4431,-0.9808,0.1039
74113,0.4674,-0.9821,0.1162
74149,0.4949,-0.9741,0.0914
74165,0.5037,-0.9626,0.0571
74214,0.4930,-0.8804,-0.1564
74230,0.4796,-0.8317,-0.2754
74240,0.4725,-0.8027,-0.3446
74251,0.4659,-0.7710,-0.4194
74267,0.4539,-0.7015,-0.5812
74283,0.4437,-0.6295,-0.7483
74301,0.4347,-0.5327,-0.9775
74317,0.4250,-0.5063,-1.1045
74333,0.4133,-0.4645,-1.1467
74349,0.3982,-0.4362,-1.2168
74367,0.3683,-0.4115,-1.2610
74378,0.3568,-0.4058,-1.2618
74394,0.3322,-0.3955,-1.2472
74410,0.3060,-0.3861,-1.2162
74459,0.2273,-0.3789,-1.0764
74492,0.1841,-0.4161,-0.9807
74502,0.1755,-0.4320,-0.9590
74518,0.1613,-0.4702,-0.9185
74534,0.1511,-0.5151,-0.8820
74550,0.1448,-0.5635,-0.8489
74561,0.1428,-0.5879,-0.8335
74571,0.1416,-0.6348,-0.8044
74581,0.1412,-0.6566,-0.7906
74597,0.1432,-0.6954,-0.7642
74613,0.1470,-0.7264,-0.7389
74629,0.1523,-0.7494,-0.7151
74659,0.1633,-0.7690,-0.6832
74675,0.1720,-0.7738,-0.6655
74691,0.1812,-0.7728,-0.6509
74712,0.1938,-0.7637,-0.6345
74728,0.2004,-0.7540,-0.6270
74744,0.2048,-0.7429,-0.6221
74767,0.2068,-0.7317,-0.6193
74795,0.2041,-0.7131,-0.6219
74809,0.2002,-0.7073,-0.6261
74850,0.1873,-0.7026,-0.6429
74865,0.1846,-0.7031,-0.6471
74881,0.1793,-0.7046,-0.6559
74894,0.1747,-0.7065,-0.6650
74910,0.1709,-0.7084,-0.6744
74926,0.1678,-0.7098,-0.6843
74942,0.1656,-0.7108,-0.6948
74952,0.1648,-0.7111,-0.7004
74968,0.1636,-0.7111,-0.7119
74980,0.1632,-0.7107,-0.7234
74996,0.1626,-0.7104,-0.7288
75006,0.1621,-0.7100,-0.7384
75040,0.1600,-0.7098,-0.7501
75056,0.1581,-0.7100,-0.7521
75072,0.1554,-0.7097,-0.7522
75102,0.1508,-0.7076,-0.7512
75118,0.1476,-0.7043,-0.7513
75134,0.1444,-0.6996,-0.7526
75147,0.1415,-0.6932,-0.7551
75163,0.1390,-0.6858,-0.7584
75179,0.1372,-0.6780,-0.7620
75195,0.1365,-0.6709,-0.7649
75205,0.1365,-0.6678,-0.7659
75216,0.1370,-0.6652,-0.7666
75225,0.1378,-0.6627,-0.7668
75241,0.1410,-0.6588,-0.7657
75256,0.1465,-0.6564,-0.7622
75305,0.1707,-0.6622,-0.7317
75321,0.1777,-0.6702,-0.7145
75331,0.1805,-0.6752,-0.7050
75347,0.1844,-0.6869,-0.6844
75363,0.1858,-0.7004,-0.6635
75379,0.1847,-0.7150,-0.6429
75423,0.1688,-0.7588,-0.5928
75469,0.1511,-0.7922,-0.5720
75483,0.1458,-0.8049,-0.5695
75501,0.1420,-0.8169,-0.5697
75517,0.1400,-0.8280,-0.5721
75533,0.1400,-0.8378,-0.5762
75549,0.1416,-0.8453,-0.5813
75567,0.1448,-0.8503,-0.5868
75583,0.1486,-0.8528,-0.5917
75599,0.1525,-0.8527,-0.5953
75615,0.1556,-0.8506,-0.5972
75633,0.1578,-0.8469,-0.5967
75643,0.1584,-0.8422,-0.5940
75659,0.1583,-0.8364,-0.5896
75675,0.1567,-0.8334,-0.5870
75711,0.1477,-0.8167,-0.5713
75743,0.1371,-0.8031,-0.5581
75758,0.1317,-0.7976,-0.5525
75773,0.1294,-0.7955,-0.5500
75783,0.1254,-0.7932,-0.5458
75794,0.1238,-0.7930,-0.5439
75810,0.1213,-0.7948,-0.5406
75826,0.1196,-0.7993,-0.5372
75844,0.1182,-0.8060,-0.5334
75876,0.1156,-0.8221,-0.5234
75892,0.1146,-0.8300,-0.5168
75908,0.1136,-0.8368,-0.5089
75918,0.1133,-0.8397,-0.5045
75934,0.1128,-0.8444,-0.4939
75950,0.1132,-0.8469,-0.4806
75966,0.1149,-0.8475,-0.4634
75984,0.1182,-0.8467,-0.4406
76016,0.1315,-0.8480,-0.3728
76032,0.1416,-0.8538,-0.3269
76073,0.1810,-0.8872,-0.1863
76082,0.1920,-0.8962,-0.1558
76098,0.2178,-0.9155,-0.0944
76119,0.2643,-0.9454,-0.0037
76135,0.2998,-0.9651,0.0537
76151,0.3381,-0.9838,0.1066
76167,0.3783,-1.0013,0.1531
76180,0.3987,-1.0095,0.1733
76196,0.4390,-1.0245,0.2065
76212,0.4774,-1.0376,0.2281
76228,0.5122,-1.0476,0.2366
76238,0.5277,-1.0511,0.2355
76256,0.5538,-1.0538,0.2216
76272,0.5725,-1.0488,0.1917
76288,0.5825,-1.0339,0.1449
76316,0.5763,-0.9659,-0.0062
76364,0.5388,-0.7390,-0.4351
76380,0.5326,-0.6351,-0.6300
76390,0.5306,-0.5820,-0.7313
76406,0.5273,-0.4801,-0.9318
76422,0.5215,-0.3910,-1.1156
76438,0.5092,-0.3207,-1.2695
76456,0.4880,-0.2708,-1.3846
76467,0.4740,-0.2532,-1.4261
76483,0.4391,-0.2321,-1.4766
76497,0.3965,-0.2279,-1.4850
76512,0.3486,-0.2391,-1.4561
76555,0.2223,-0.3230,-1.2666
76570,0.1753,-0.3734,-1.1656
76587,0.1335,-0.4297,-1.0624
76623,0.0710,-0.5480,-0.8738
76638,0.0518,-0.6040,-0.7968
76655,0.0404,-0.6544,-0.7341
76673,0.0361,-0.6976,-0.6677
76689,0.0377,-0.7322,-0.6523
76705,0.0436,-0.7576,-0.6304
76724,0.0565,-0.7778,-0.6147
76758,0.0735,-0.7759,-0.6143
76773,0.0797,-0.7661,-0.6187
76789,0.0840,-0.7533,-0.6245
76799,0.0853,-0.7463,-0.6277
76815,0.0867,-0.7327,-0.6344
76831,0.0864,-0.7201,-0.6414
76842,0.0859,-0.7146,-0.6449
76860,0.0840,-0.7056,-0.6520
76882,0.0798,-0.6970,-0.6625
76897,0.0765,-0.6947,-0.6691
76925,0.0708,-0.6953,-0.6776
76957,0.0635,-0.7009,-0.6852
76972,0.0604,-0.7046,-0.6877
76988,0.0581,-0.7083,-0.6898
77003,0.0566,-0.7113,-0.6921
77016,0.0562,-0.7126,-0.6934
77032,0.0554,-0.7145,-0.6964
77048,0.0546,-0.7153,-0.7001
77066,0.0532,-0.7152,-0.7058
77084,0.0497,-0.7147,-0.7095
77100,0.0465,-0.7142,-0.7133
77116,0.0435,-0.7140,-0.7175
77155,0.0383,-0.7144,-0.7296
77166,0.0363,-0.7148,-0.7366
77182,0.0344,-0.7152,-0.7433
77203,0.0326,-0.7155,-0.7490
77245,0.0275,-0.7131,-0.7626
77254,0.0265,-0.7089,-0.7714
77265,0.0251,-0.7056,-0.7772
77280,0.0247,-0.6964,-0.7921
77291,0.0248,-0.6904,-0.8010
77306,0.0254,-0.6764,-0.8207
77321,0.0264,-0.6597,-0.8408
77368,0.0305,-0.6138,-0.8730
77384,0.0331,-0.5979,-0.8717
77394,0.0367,-0.5858,-0.8601
77409,0.0391,-0.5819,-0.8505
77425,0.0453,-0.5791,-0.8239
77441,0.0535,-0.5841,-0.7889
77459,0.0687,-0.6072,-0.7257
77475,0.0742,-0.6313,-0.6804
77488,0.0854,-0.6453,-0.6580
77501,0.0961,-0.6749,-0.6152
77537,0.1113,-0.7329,-0.5448
77581,0.1064,-0.7887,-0.4832
77597,0.0902,-0.8085,-0.4771
77615,0.0499,-0.8383,-0.4659
77630,0.0341,-0.8478,-0.4650
77646,0.0023,-0.8652,-0.4674
77661,-0.0251,-0.8798,-0.4766
77678,-0.0447,-0.8911,-0.4923
77693,-0.0548,-0.8993,-0.5132
77703,-0.0564,-0.9023,-0.5250
77720,-0.0526,-0.9060,-0.5498
77728,-0.0476,-0.9065,-0.5621
77767,0.0004,-0.8978,-0.6146
77778,0.0259,-0.8892,-0.6278
77794,0.0388,-0.8839,-0.6321
77811,0.0753,-0.8646,-0.6346
77839,0.1041,-0.8430,-0.6217
77855,0.1171,-0.8293,-0.6055
77873,0.1245,-0.8176,-0.5848
77889,0.1266,-0.8085,-0.5615
77907,0.1237,-0.8024,-0.5371
77923,0.1167,-0.7993,-0.5133
77962,0.0886,-0.8049,-0.4646
77978,0.0765,-0.8121,-0.4515
77994,0.0659,-0.8214,-0.4423
78009,0.0577,-0.8322,-0.4362
78025,0.0524,-0.8440,-0.4327
78041,0.0500,-0.8561,-0.4314
78057,0.0509,-0.8678,-0.4315
78067,0.0525,-0.8733,-0.4320
78078,0.0548,-0.8784,-0.4327
78094,0.0612,-0.8873,-0.4348
78112,0.0692,-0.8938,-0.4369
78140,0.0867,-0.8971,-0.4393
78171,0.0974,-0.8878,-0.4347
78186,0.0980,-0.8840,-0.4320
78202,0.0963,-0.8755,-0.4246
78212,0.0924,-0.8672,-0.4148
78227,0.0901,-0.8636,-0.4089
78243,0.0861,-0.8586,-0.3950
78259,0.0844,-0.8582,-0.3773
78280,0.0886,-0.8685,-0.3401
78295,0.0970,-0.8838,-0.3059
78314,0.1102,-0.9055,-0.2631
78330,0.1276,-0.9326,-0.2115
78388,0.2070,-1.0450,0.0160
78406,0.2307,-1.0734,0.0815
78441,0.2860,-1.1196,0.2012
78452,0.2958,-1.1238,0.2137
78470,0.3134,-1.1263,0.2249
78486,0.3276,-1.1205,0.2172
78502,0.3385,-1.1055,0.1913
78514,0.3739,-1.0814,0.1489
78525,0.3485,-1.0662,0.1223
78569,0.3494,-0.9620,-0.0544
78585,0.3459,-0.9103,-0.1420
78603,0.3424,-0.8546,-0.2385
78619,0.3395,-0.7969,-0.3446
78635,0.3372,-0.7385,-0.4598
78651,0.3350,-0.6804,-0.5828
78669,0.3319,-0.6230,-0.7100
78685,0.3270,-0.5669,-0.8364
78701,0.3191,-0.5138,-0.9552
78717,0.3060,-0.4661,-1.0588
78763,0.2269,-0.3708,-1.2151
78797,0.1582,-0.3583,-1.1807
78808,0.1423,-0.3635,-1.1589
78823,0.1141,-0.3850,-1.1053
78840,0.0916,-0.4204,-1.0433
78856,0.0748,-0.4678,-0.9785
78872,0.0635,-0.5239,-0.9158
78888,0.0564,-0.5850,-0.8588
78906,0.0525,-0.6466,-0.8098
78922,0.0505,-0.7047,-0.7699
78932,0.0494,-0.7554,-0.7390
78947,0.0490,-0.7769,-0.7267
78963,0.0475,-0.8109,-0.7068
78994,0.0416,-0.8411,-0.6809
79010,0.0372,-0.8387,-0.6718
79022,0.0327,-0.8273,-0.6642
79060,0.0260,-0.7878,-0.6521
79070,0.0253,-0.7767,-0.6495
79086,0.0250,-0.7550,-0.6447
79102,0.0265,-0.7361,-0.6396
79113,0.0293,-0.7213,-0.6346
79131,0.0333,-0.7115,-0.6298
79141,0.0358,-0.7085,-0.6274
79157,0.0415,-0.7061,-0.6237
79173,0.0481,-0.7079,-0.6215
79189,0.0554,-0.7129,-0.6213
79220,0.0704,-0.7296,-0.6277
79229,0.0741,-0.7346,-0.6306
79245,0.0811,-0.7451,-0.6378
79267,0.0905,-0.7610,-0.6510
79283,0.0933,-0.7661,-0.6603
79299,0.0983,-0.7754,-0.6648
79315,0.1024,-0.7833,-0.6730
79325,0.1058,-0.7893,-0.6796
79353,0.1094,-0.7950,-0.6858
79368,0.1106,-0.7964,-0.6874
79424,0.1057,-0.7883,-0.6765
79440,0.1007,-0.7837,-0.6689
79453,0.0978,-0.7811,-0.6647
79469,0.0909,-0.7762,-0.6552
79485,0.0839,-0.7716,-0.6453
79501,0.0768,-0.7675,-0.6354
79511,0.0735,-0.7656,-0.6306
79527,0.0674,-0.7625,-0.6217
79539,0.0623,-0.7601,-0.6139
79555,0.0582,-0.7585,-0.6077
79565,0.0566,-0.7582,-0.6050
79609,0.0531,-0.7600,-0.5983
79625,0.0537,-0.7626,-0.5981
79663,0.0581,-0.7715,-0.6021
79679,0.0601,-0.7750,-0.6049
79695,0.0618,-0.7777,-0.6085
79705,0.0624,-0.7787,-0.6108
79721,0.0631,-0.7794,-0.6165
79737,0.0629,-0.7783,-0.6241
79752,0.0615,-0.7751,-0.6342
79792,0.0536,-0.7582,-0.6709
79805,0.0511,-0.7533,-0.6797
79817,0.0458,-0.7423,-0.6976
79834,0.0400,-0.7295,-0.7147
79849,0.0345,-0.7151,-0.7297
79864,0.0321,-0.7075,-0.7361
79879,0.0283,-0.6919,-0.7467
79897,0.0264,-0.6697,-0.7576
79913,0.0270,-0.6630,-0.7600
79929,0.0305,-0.6514,-0.7632
79965,0.0504,-0.6387,-0.7603
79999,0.0781,-0.6486,-0.7477
80015,0.0961,-0.6593,-0.7393
80031,0.1161,-0.6732,-0.7300
80046,0.1368,-0.6902,-0.7200
80062,0.1559,-0.7097,-0.7086
80078,0.1709,-0.7313,-0.6956
80094,0.1801,-0.7542,-0.6801
80104,0.1820,-0.7656,-0.6713
80115,0.1820,-0.7772,-0.6620
80131,0.1768,-0.7998,-0.6423
80147,0.1653,-0.8214,-0.6222
80165,0.1490,-0.8417,-0.6031
80183,0.1299,-0.8605,-0.5785
80199,0.1094,-0.8773,-0.5715
80215,0.0892,-0.8920,-0.5598
80254,0.0486,-0.9199,-0.5398
80282,0.0291,-0.9348,-0.5254
80300,0.0238,-0.9377,-0.5157
80316,0.0216,-0.9362,-0.5035
80332,0.0225,-0.9294,-0.4888
80348,0.0254,-0.9181,-0.4718
80369,0.0300,-0.9031,-0.4535
80388,0.0356,-0.8864,-0.4255
80403,0.0413,-0.8698,-0.4165
80419,0.0463,-0.8555,-0.3998
80467,0.0524,-0.8362,-0.3640
80478,0.0520,-0.8384,-0.3573
80496,0.0509,-0.8438,-0.3522
80512,0.0502,-0.8513,-0.3474
80528,0.0503,-0.8604,-0.3413
80544,0.0525,-0.8707,-0.3319
80557,0.0547,-0.8765,-0.3253
80599,0.0778,-0.9132,-0.2656
80610,0.0939,-0.9333,-0.2285
80659,0.1650,-1.0077,-0.0917
80675,0.1938,-1.0325,-0.0450
80693,0.2223,-1.0546,-0.0013
80709,0.2484,-1.0730,0.0382
80725,0.2699,-1.0872,0.0729
80741,0.2852,-1.0964,0.1017
80752,0.2902,-1.0991,0.1135
80762,0.2933,-1.1006,0.1235
80781,0.2931,-1.0970,0.1406
80797,0.2902,-1.0883,0.1399
80815,0.2755,-1.0746,0.1285
80850,0.2489,-1.0338,0.0756
80886,0.2247,-0.9783,-0.0092
80896,0.2155,-0.9467,-0.0601
80911,0.2117,-0.9299,-0.0880
80927,0.2064,-0.8938,-0.1510
80943,0.2050,-0.8513,-0.2264
80961,0.2122,-0.7705,-0.3693
80977,0.2169,-0.7050,-0.4850
80993,0.2288,-0.6694,-0.5482
81009,0.2424,-0.5948,-0.6824
81019,0.2562,-0.5189,-0.8215
81051,0.2766,-0.3800,-1.0823
81068,0.2786,-0.3248,-1.1876
81083,0.2766,-0.3021,-1.2311
81093,0.2664,-0.2677,-1.2970
81109,0.2480,-0.2483,-1.3339
81125,0.2231,-0.2444,-1.3427
81136,0.2090,-0.2483,-1.3373
81152,0.1781,-0.2677,-1.3096
81162,0.1619,-0.2831,-1.2882
81190,0.0975,-0.3751,-1.1681
81206,0.0823,-0.4352,-1.0962
81248,0.0055,-0.5883,-0.9215
81264,-0.0133,-0.6422,-0.8636
81279,-0.0214,-0.6660,-0.8385
81290,-0.0344,-0.7056,-0.7963
81306,-0.0433,-0.7335,-0.7645
81322,-0.0485,-0.7498,-0.7423
81338,-0.0498,-0.7552,-0.7278
81356,-0.0481,-0.7517,-0.7192
81372,-0.0435,-0.7417,-0.7142
81388,-0.0366,-0.7278,-0.7109
81402,-0.0323,-0.7202,-0.7094
81423,-0.0172,-0.6991,-0.7030
81437,-0.0054,-0.6882,-0.6965
81453,0.0072,-0.6814,-0.6884
81469,0.0205,-0.6786,-0.6790
81503,0.0464,-0.6846,-0.6592
81551,0.0763,-0.7109,-0.6382
81567,0.0822,-0.7211,-0.6359
81582,0.0842,-0.7260,-0.6359
81598,0.0865,-0.7349,-0.6378
81614,0.0865,-0.7426,-0.6426
81630,0.0842,-0.7483,-0.6494
81680,0.0677,-0.7523,-0.6765
81696,0.0607,-0.7494,-0.6857
81706,0.0537,-0.7450,-0.6943
81721,0.0503,-0.7423,-0.6984
81737,0.0443,-0.7365,-0.7059
81748,0.0392,-0.7302,-0.7125
81764,0.0352,-0.7244,-0.7181
81774,0.0334,-0.7217,-0.7206
81802,0.0297,-0.7153,-0.7274
81818,0.0281,-0.7124,-0.7321
81836,0.0270,-0.7106,-0.7402
81846,0.0261,-0.7098,-0.7430
81862,0.0255,-0.7098,-0.7485
81878,0.0249,-0.7104,-0.7534
81892,0.0248,-0.7108,-0.7554
81924,0.0253,-0.7120,-0.7607
81940,0.0266,-0.7114,-0.7626
81956,0.0284,-0.7090,-0.7645
81966,0.0295,-0.7067,-0.7656
81982,0.0320,-0.6997,-0.7681
81998,0.0341,-0.6893,-0.7706
82014,0.0352,-0.6760,-0.7723
82032,0.0350,-0.6609,-0.7722
82043,0.0339,-0.6456,-0.7694
82054,0.0333,-0.6385,-0.7667
82070,0.0325,-0.6270,-0.7587
82082,0.0332,-0.6202,-0.7469
82110,0.0394,-0.6219,-0.7229
82142,0.0575,-0.6500,-0.6790
82158,0.0674,-0.6748,-0.6521
82174,0.0753,-0.7052,-0.6232
82184,0.0780,-0.7218,-0.6083
82200,0.0806,-0.7561,-0.5793
82216,0.0792,-0.7897,-0.5535
82232,0.0745,-0.8204,-0.5325
82250,0.0668,-0.8463,-0.5175
82260,0.0620,-0.8571,-0.5121
82276,0.0514,-0.8732,-0.5055
82292,0.0399,-0.8821,-0.5031
82308,0.0284,-0.8842,-0.5035
82342,0.0090,-0.8721,-0.5073
82358,0.0029,-0.8610,-0.5090
82374,0.0001,-0.8486,-0.5105
82384,0.0000,-0.8425,-0.5116
82423,0.0117,-0.8181,-0.5148
82439,0.0210,-0.8134,-0.5176
82449,0.0262,-0.8123,-0.5194
82468,0.0436,-0.8143,-0.5262
82484,0.0558,-0.8195,-0.5316
82500,0.0681,-0.8273,-0.5370
82551,0.1030,-0.8596,-0.5474
82567,0.1129,-0.8716,-0.5464
82577,0.1174,-0.8776,-0.5448
82590,0.1252,-0.8895,-0.5391
82606,0.1315,-0.9009,-0.5297
82621,0.1338,-0.9060,-0.5236
82639,0.1379,-0.9183,-0.4995
82655,0.1379,-0.9232,-0.4788
82666,0.1372,-0.9247,-0.4669
82677,0.1359,-0.9255,-0.4542
82713,0.1232,-0.9243,-0.3801
82757,0.1102,-0.9248,-0.2959
82773,0.1082,-0.9297,-0.2625
82802,0.1112,-0.9514,-0.2026
82817,0.1135,-0.9592,-0.1898
82833,0.1199,-0.9768,-0.1678
82849,0.1283,-0.9955,-0.1501
82864,0.1378,-1.0135,-0.1356
82882,0.1478,-1.0294,-0.1224
82897,0.1576,-1.0425,-0.1082
82913,0.1669,-1.0525,-0.0909
82945,0.1848,-1.0641,-0.0444
82961,0.1949,-1.0659,-0.0168
82977,0.2072,-1.0648,0.0099
82987,0.2144,-1.0632,0.0220
83015,0.2504,-1.0461,0.0519
83026,0.2610,-1.0383,0.0531
83042,0.2841,-1.0175,0.0460
83052,0.2963,-1.0038,0.0371
83068,0.3221,-0.9696,0.0071
83086,0.3489,-0.9255,-0.0416
83099,0.3760,-0.8712,-0.1123
83138,0.4381,-0.6893,-0.4015
83154,0.4575,-0.6002,-0.5597
83169,0.4651,-0.5537,-0.6449
83179,0.4747,-0.4609,-0.8213
83195,0.4751,-0.3739,-0.9960
83210,0.4713,-0.3345,-1.0789
83226,0.4557,-0.2664,-1.2292
83244,0.4138,-0.1965,-1.4004
83259,0.3958,-0.1829,-1.4399
83276,0.3555,-0.1725,-1.5009
83294,0.2886,-0.1912,-1.4941
83322,0.2214,-0.2544,-1.4215
83354,0.1428,-0.3881,-1.2434
83366,0.1113,-0.4650,-1.1379
83382,0.0978,-0.5034,-1.0533
83399,0.0752,-0.6077,-0.9316
83415,0.0581,-0.6722,-0.8416
83431,0.0457,-0.6941,-0.8013
83447,0.0369,-0.7340,-0.7311
83465,0.0293,-0.7697,-0.6532
83480,0.0281,-0.7756,-0.6343
83499,0.0277,-0.7793,-0.5964
83515,0.0298,-0.7727,-0.5845
83582,0.0460,-0.7256,-0.5881
83591,0.0483,-0.7218,-0.5900
83609,0.0533,-0.7178,-0.5928
83637,0.0660,-0.7233,-0.5948
83653,0.0740,-0.7314,-0.5950
83663,0.0784,-0.7362,-0.5950
83679,0.0878,-0.7465,-0.5953
83690,0.0927,-0.7515,-0.5958
83704,0.1024,-0.7607,-0.5979
83720,0.1118,-0.7681,-0.6018
83764,0.1293,-0.7739,-0.6230
83780,0.1326,-0.7709,-0.6366
83798,0.1337,-0.7654,-0.6525
83814,0.1323,-0.7582,-0.6694
83830,0.1289,-0.7502,-0.6862
83846,0.1237,-0.7422,-0.7015
83864,0.1173,-0.7345,-0.7152
83880,0.1106,-0.7274,-0.7268
83896,0.1042,-0.7208,-0.7367
83906,0.1014,-0.7177,-0.7451
83952,0.0930,-0.7026,-0.7609
83984,0.0947,-0.6982,-0.7725
84000,0.0973,-0.6968,-0.7804
84016,0.1010,-0.6951,-0.7905
84026,0.1030,-0.6940,-0.7965
84037,0.1080,-0.6915,-0.8097
84053,0.1107,-0.6901,-0.8231
84069,0.1165,-0.6873,-0.8293
84087,0.1248,-0.6842,-0.8427
84103,0.1299,-0.6837,-0.8446
84118,0.1323,-0.6841,-0.8428
84134,0.1371,-0.6862,-0.8333
84173,0.1508,-0.6965,-0.7747
84188,0.1569,-0.7014,-0.7388
84203,0.1628,-0.7067,-0.6979
84213,0.1655,-0.7096,-0.6760
84249,0.1731,-0.7241,-0.5865
84264,0.1737,-0.7334,-0.5441
84274,0.1732,-0.7439,-0.5055
84289,0.1707,-0.7498,-0.4880
84305,0.1661,-0.7628,-0.4580
84315,0.1605,-0.7780,-0.4346
84331,0.1573,-0.7863,-0.4253
84362,0.1448,-0.8235,-0.4053
84373,0.1403,-0.8433,-0.4048
84388,0.1388,-0.8530,-0.4067
84406,0.1379,-0.8804,-0.4203
84422,0.1405,-0.8953,-0.4340
84437,0.1427,-0.9012,-0.4417
84453,0.1482,-0.9100,-0.4576
84471,0.1578,-0.9144,-0.4807
84486,0.1609,-0.9136,-0.4875
84502,0.1663,-0.9086,-0.4994
84521,0.1716,-0.8936,-0.5112
84597,0.1747,-0.8395,-0.4957
84610,0.1750,-0.8380,-0.4822
84622,0.1753,-0.8396,-0.4742
84637,0.1763,-0.8473,-0.4570
84652,0.1781,-0.8599,-0.4390
84670,0.1810,-0.8755,-0.4210
84685,0.1852,-0.8923,-0.4042
84696,0.1876,-0.9008,-0.3962
84712,0.1926,-0.9164,-0.3815
84723,0.1951,-0.9233,-0.3746
84767,0.2045,-0.9459,-0.3368
84783,0.2041,-0.9440,-0.3237
84801,0.2020,-0.9374,-0.3093
84820,0.1992,-0.9271,-0.2927
84836,0.1964,-0.9150,-0.2731
84864,0.1934,-0.8944,-0.2246
84880,0.1943,-0.8895,-0.1971
84895,0.1958,-0.8890,-0.1835
84910,0.2012,-0.8918,-0.1573
84928,0.2102,-0.8995,-0.1349
84960,0.2401,-0.9249,-0.1068
84976,0.2598,-0.9401,-0.1011
84992,0.2806,-0.9550,-0.0991
85002,0.2910,-0.9619,-0.0984
85018,0.3105,-0.9744,-0.0977
85029,0.3275,-0.9841,-0.0945
85045,0.3407,-0.9911,-0.0878
85063,0.3502,-0.9951,-0.0769
85079,0.3563,-0.9963,-0.0627
85095,0.3599,-0.9949,-0.0476
85111,0.3619,-0.9906,-0.0341
85124,0.3627,-0.9874,-0.0289
85158,0.3657,-0.9601,-0.0343
85186,0.3662,-0.9376,-0.0680
85196,0.3657,-0.9299,-0.0842
85212,0.3634,-0.9150,-0.1230
85228,0.3590,-0.9005,-0.1694
85244,0.3528,-0.8859,-0.2224
85262,0.3457,-0.8702,-0.2820
85271,0.3424,-0.8618,-0.3146
85283,0.3369,-0.8424,-0.3860
85299,0.3339,-0.8174,-0.4661
85315,0.3337,-0.7843,-0.5547
85326,0.3346,-0.7644,-0.6019
85337,0.3358,-0.7423,-0.6506
85353,0.3389,-0.6921,-0.7517
85369,0.3412,-0.6355,-0.8546
85408,0.3307,-0.4808,-1.0900
85423,0.3177,-0.4221,-1.1633
85439,0.2993,-0.3713,-1.2190
85449,0.2880,-0.3500,-1.2393
85465,0.2610,-0.3170,-1.2635
85493,0.2109,-0.2943,-1.2462
85511,0.1536,-0.3043,-1.2080
85527,0.1155,-0.3276,-1.1552
85538,0.0975,-0.3440,-1.1246
85554,0.0659,-0.3848,-1.0590
85610,0.0212,-0.5819,-0.8331
85624,0.0275,-0.6401,-0.7815
85637,0.0328,-0.6674,-0.7589
85653,0.0470,-0.7159,-0.7197
85669,0.0638,-0.7549,-0.6888
85685,0.0814,-0.7827,-0.6658
85695,0.0901,-0.7925,-0.6570
85711,0.1067,-0.8040,-0.6443
85727,0.1216,-0.8058,-0.6376
85745,0.1346,-0.8002,-0.6359
85796,0.1610,-0.7512,-0.6523
85842,0.1573,-0.7173,-0.6664
85852,0.1544,-0.7122,-0.6687
85868,0.1470,-0.7039,-0.6730
85884,0.1378,-0.6980,-0.6768
85900,0.1277,-0.6946,-0.6803
85917,0.1174,-0.6932,-0.6837
85933,0.1075,-0.6937,-0.6870
85951,0.0988,-0.6962,-0.6923
85962,0.0919,-0.7003,-0.6942
86001,0.0867,-0.7172,-0.7069
86016,0.0879,-0.7209,-0.7102
86032,0.0923,-0.7280,-0.7169
86042,0.0988,-0.7338,-0.7238
86057,0.1023,-0.7358,-0.7269
86073,0.1099,-0.7382,-0.7322
86089,0.1173,-0.7379,-0.7355
86135,0.1343,-0.7275,-0.7314
86153,0.1384,-0.7227,-0.7264
86192,0.1467,-0.7120,-0.7086
86208,0.1494,-0.7098,-0.6995
86224,0.1515,-0.7096,-0.6891
86234,0.1523,-0.7102,-0.6836
86250,0.1533,-0.7129,-0.6721
86266,0.1537,-0.7172,-0.6603
86282,0.1534,-0.7227,-0.6484
86300,0.1528,-0.7289,-0.6366
86311,0.1523,-0.7357,-0.6246
86327,0.1511,-0.7394,-0.6185
86343,0.1493,-0.7468,-0.6062
86384,0.1444,-0.7660,-0.5753
86400,0.1437,-0.7731,-0.5640
86428,0.1448,-0.7870,-0.5446
86438,0.1454,-0.7905,-0.5404
86454,0.1462,-0.7979,-0.5332
86470,0.1464,-0.8052,-0.5275
86486,0.1451,-0.8124,-0.5238
86504,0.1427,-0.8193,-0.5226
86520,0.1392,-0.8263,-0.5244
86536,0.1350,-0.8330,-0.5294
86552,0.1301,-0.8395,-0.5374
86563,0.1276,-0.8427,-0.5422
86611,0.1097,-0.8573,-0.5763
86627,0.1035,-0.8588,-0.5867
86643,0.0973,-0.8577,-0.5950
86659,0.0916,-0.8541,-0.6001
86675,0.0870,-0.8484,-0.6014
86691,0.0841,-0.8416,-0.5988
86701,0.0835,-0.8380,-0.5957
86729,0.0862,-0.8263,-0.5728
86744,0.0880,-0.8246,-0.5643
86765,0.0952,-0.8235,-0.5339
86776,0.0979,-0.8246,-0.5226
86792,0.1033,-0.8286,-0.4991
86808,0.1080,-0.8345,-0.4760
86870,0.1178,-0.8622,-0.4083
86893,0.1172,-0.8724,-0.3970
86908,0.1166,-0.8759,-0.3945
86923,0.1156,-0.8824,-0.3918
86939,0.1152,-0.8890,-0.3914
86949,0.1155,-0.8922,-0.3921
86965,0.1172,-0.8987,-0.3950
86976,0.1202,-0.9045,-0.3999
86987,0.1222,-0.9072,-0.4031
87003,0.1268,-0.9113,-0.4102
87054,0.1404,-0.9094,-0.4337
87070,0.1429,-0.9032,-0.4399
87080,0.1437,-0.8993,-0.4441
87096,0.1442,-0.8903,-0.4452
87112,0.1432,-0.8807,-0.4457
87128,0.1411,-0.8715,-0.4437
87146,0.1367,-0.8597,-0.4373
87159,0.1353,-0.8566,-0.4343
87175,0.1323,-0.8512,-0.4280
87193,0.1302,-0.8470,-0.4204
87232,0.1307,-0.8427,-0.3900
87248,0.1339,-0.8444,-0.3696
87264,0.1390,-0.8489,-0.3430
87275,0.1427,-0.8524,-0.3273
87291,0.1526,-0.8627,-0.2905
87307,0.1660,-0.8771,-0.2472
87338,0.2046,-0.9182,-0.1420
87348,0.2166,-0.9303,-0.1123
87364,0.2428,-0.9553,-0.0494
87380,0.2716,-0.9801,0.0166
87398,0.3022,-1.0035,0.0837
87437,0.3824,-1.0471,0.2351
87453,0.4141,-1.0563,0.2788
87469,0.4442,-1.0599,0.3070
87479,0.4584,-1.0596,0.3142
87495,0.4845,-1.0542,0.3137
87511,0.5066,-1.0425,0.2921
87527,0.5237,-1.0240,0.2490
87545,0.5347,-0.9983,0.1849
87561,0.5391,-0.9650,0.1005
87577,0.5363,-0.9237,-0.0051
87593,0.5264,-0.8730,-0.1327
87604,0.5105,-0.8109,-0.2827
87652,0.4490,-0.6013,-0.7216
87686,0.3572,-0.3669,-1.1277
87696,0.3365,-0.3264,-1.1927
87712,0.2957,-0.2568,-1.3015
87728,0.2571,-0.2047,-1.3802
87744,0.2225,-0.1707,-1.4280
87762,0.1930,-0.1547,-1.4454
87778,0.1687,-0.1553,-1.4348
87794,0.1487,-0.1708,-1.4000
87804,0.1401,-0.1833,-1.3752
87820,0.1252,-0.2159,-1.3143
87866,0.0973,-0.3489,-1.0973
87881,0.0950,-0.3733,-1.0627
87891,0.0920,-0.4224,-0.9983
87906,0.0912,-0.4467,-0.9689
87921,0.0902,-0.4945,-0.9158
87937,0.0898,-0.5400,-0.8701
87955,0.0895,-0.5822,-0.8313
87994,0.0869,-0.6676,-0.7551
88005,0.0852,-0.6926,-0.7296
88016,0.0845,-0.7031,-0.7175
88048,0.0836,-0.7319,-0.6732
88064,0.0861,-0.7394,-0.6542
88080,0.0911,-0.7432,-0.6379
88090,0.0945,-0.7439,-0.6310
88106,0.1031,-0.7434,-0.6194
88122,0.1134,-0.7411,-0.6111
88138,0.1245,-0.7375,-0.6060
88156,0.1354,-0.7334,-0.6039
88172,0.1453,-0.7291,-0.6051
88185,0.1537,-0.7251,-0.6093
88201,0.1571,-0.7217,-0.6163
88250,0.1659,-0.7125,-0.6498
88286,0.1562,-0.7039,-0.6760
88296,0.1526,-0.7012,-0.6826
88307,0.1486,-0.6982,-0.6893
88323,0.1398,-0.6918,-0.7028
88339,0.1310,-0.6851,-0.7167
88357,0.1194,-0.6757,-0.7378
88373,0.1163,-0.6707,-0.7512
88389,0.1115,-0.6688,-0.7573
88405,0.1085,-0.6665,-0.7681
88446,0.1075,-0.6689,-0.7822
88462,0.1091,-0.6727,-0.7823
88478,0.1116,-0.6774,-0.7802
88488,0.1150,-0.6827,-0.7767
88503,0.1169,-0.6855,-0.7748
88519,0.1215,-0.6913,-0.7710
88535,0.1261,-0.6967,-0.7675
88553,0.1306,-0.7036,-0.7615
88589,0.1396,-0.7109,-0.7485
88605,0.1420,-0.7139,-0.7389
88615,0.1428,-0.7152,-0.7332
88630,0.1443,-0.7177,-0.7201
88646,0.1455,-0.7200,-0.7054
88662,0.1470,-0.7223,-0.6896
88729,0.1567,-0.7384,-0.6254
88742,0.1595,-0.7450,-0.6115
88752,0.1608,-0.7488,-0.6052
88768,0.1626,-0.7568,-0.5939
88784,0.1632,-0.7656,-0.5845
88800,0.1625,-0.7749,-0.5774
88818,0.1602,-0.7839,-0.5728
88829,0.1584,-0.7881,-0.5715
88845,0.1545,-0.7948,-0.5709
88861,0.1501,-0.7988,-0.5728
88946,0.1321,-0.7853,-0.6082
88961,0.1307,-0.7798,-0.6116
88977,0.1307,-0.7748,-0.6179
88993,0.1321,-0.7711,-0.6233
89009,0.1348,-0.7693,-0.6273
89022,0.1388,-0.7699,-0.6299
89032,0.1411,-0.7714,-0.6307
89048,0.1462,-0.7765,-0.6312
89064,0.1515,-0.7845,-0.6304
89103,0.1615,-0.8107,-0.6251
89119,0.1636,-0.8204,-0.6235
89135,0.1646,-0.8279,-0.6235
89145,0.1646,-0.8303,-0.6241
89161,0.1635,-0.8324,-0.6266
89177,0.1608,-0.8301,-0.6302
89211,0.1523,-0.8146,-0.6370
89221,0.1499,-0.8092,-0.6377
89239,0.1455,-0.7983,-0.6372
89252,0.1425,-0.7885,-0.6332
89268,0.1414,-0.7814,-0.6251
89277,0.1418,-0.7792,-0.6194
89309,0.1504,-0.7820,-0.5837
89325,0.1584,-0.7904,-0.5581
89336,0.1631,-0.7961,-0.5435
89354,0.1733,-0.8098,-0.5107
89370,0.1836,-0.8253,-0.4740
89386,0.1932,-0.8408,-0.4343
89402,0.2013,-0.8553,-0.3925
89420,0.2074,-0.8678,-0.3284
89436,0.2117,-0.8781,-0.3074
89446,0.2145,-0.8860,-0.2667
89462,0.2163,-0.8925,-0.2289
89477,0.2172,-0.8953,-0.2114
89522,0.2269,-0.9114,-0.1338
89538,0.2333,-0.9175,-0.1199
89556,0.2411,-0.9241,-0.1116
89572,0.2500,-0.9308,-0.1075
89588,0.2595,-0.9374,-0.1058
89604,0.2693,-0.9438,-0.1046
89622,0.2792,-0.9502,-0.1023
89638,0.2888,-0.9567,-0.0980
89652,0.2983,-0.9631,-0.0922
89668,0.3076,-0.9696,-0.0863
89724,0.3368,-0.9786,-0.1014
89740,0.3416,-0.9716,-0.1251
89750,0.3428,-0.9657,-0.1404
89763,0.3431,-0.9584,-0.1578
89779,0.3406,-0.9396,-0.1971
89824,0.3069,-0.8610,-0.3198
89834,0.2991,-0.8464,-0.3372
89852,0.2839,-0.8179,-0.3669
89868,0.2712,-0.7924,-0.3909
89884,0.2635,-0.7726,-0.4111
89938,0.2964,-0.7404,-0.5265
89953,0.3197,-0.7224,-0.5897
89963,0.3318,-0.7091,-0.6268
89979,0.3544,-0.6730,-0.7096
89995,0.3712,-0.6260,-0.7994
90011,0.3800,-0.5718,-0.8905
90029,0.3801,-0.5149,-0.9777
90040,0.3771,-0.4869,-1.0184
90058,0.3665,-0.4346,-1.1254
90074,0.3508,-0.3895,-1.1548
90133,0.2570,-0.3022,-1.2373
90149,0.2269,-0.3048,-1.2113
90159,0.2114,-0.3098,-1.1925
90175,0.1807,-0.3269,-1.1458
90191,0.1519,-0.3527,-1.0914
90207,0.1272,-0.3856,-1.0344
90225,0.1078,-0.4241,-0.9794
90241,0.0945,-0.4658,-0.9291
90259,0.0870,-0.5088,-0.8857
90272,0.0844,-0.5504,-0.8499
90311,0.0894,-0.6219,-0.8008
90327,0.0956,-0.6488,-0.7864
90343,0.1034,-0.6692,-0.7776
90353,0.1123,-0.6831,-0.7729
90364,0.1169,-0.6880,-0.7717
90380,0.1265,-0.6942,-0.7704
90416,0.1450,-0.6980,-0.7668
90426,0.1494,-0.6984,-0.7649
90442,0.1580,-0.6997,-0.7592
90460,0.1694,-0.7054,-0.7450
90475,0.1729,-0.7085,-0.7388
90514,0.1844,-0.7305,-0.6960
90530,0.1862,-0.7405,-0.6747
90546,0.1857,-0.7496,-0.6520
90556,0.1847,-0.7537,-0.6405
90572,0.1814,-0.7601,-0.6182
90588,0.1765,-0.7642,-0.5975
90604,0.1707,-0.7655,-0.5797
90622,0.1641,-0.7644,-0.5653
90638,0.1575,-0.7617,-0.5548
90654,0.1511,-0.7581,-0.5485
90665,0.1454,-0.7544,-0.5465
90676,0.1427,-0.7528,-0.5470
90725,0.1316,-0.7491,-0.5667
90753,0.1289,-0.7509,-0.5828
90763,0.1279,-0.7531,-0.5946
90776,0.1277,-0.7543,-0.6007
90792,0.1274,-0.7570,-0.6130
90808,0.1277,-0.7595,-0.6250
90826,0.1284,-0.7617,-0.6362
90842,0.1294,-0.7634,-0.6465
90858,0.1309,-0.7645,-0.6556
90869,0.1324,-0.7653,-0.6637
90920,0.1384,-0.7627,-0.6809
90936,0.1401,-0.7601,-0.6842
90964,0.1421,-0.7546,-0.6865
90980,0.1428,-0.7505,-0.6859
90996,0.1433,-0.7463,-0.6831
91012,0.1438,-0.7427,-0.6781
91030,0.1444,-0.7400,-0.6711
91062,0.1479,-0.7374,-0.6541
91072,0.1492,-0.7373,-0.6494
91111,0.1548,-0.7412,-0.6281
91127,0.1552,-0.7444,-0.6215
91143,0.1544,-0.7480,-0.6171
91153,0.1537,-0.7500,-0.6160
91169,0.1520,-0.7542,-0.6166
91185,0.1505,-0.7585,-0.6208
91201,0.1494,-0.7633,-0.6283
91219,0.1488,-0.7682,-0.6379
91235,0.1479,-0.7728,-0.6478
91251,0.1466,-0.7767,-0.6564
91267,0.1440,-0.7795,-0.6622
91282,0.1400,-0.7809,-0.6646
91315,0.1283,-0.7808,-0.6559
91331,0.1217,-0.7810,-0.6451
91370,0.1094,-0.7904,-0.6057
91380,0.1084,-0.7939,-0.5969
91391,0.1082,-0.7981,-0.5883
91407,0.1100,-0.8074,-0.5718
91423,0.1147,-0.8177,-0.5571
91441,0.1218,-0.8333,-0.5397
91456,0.1301,-0.8379,-0.5348
91472,0.1388,-0.8457,-0.5265
91482,0.1467,-0.8511,-0.5194
91498,0.1501,-0.8536,-0.5129
91529,0.1591,-0.8523,-0.5028
91545,0.1609,-0.8488,-0.4954
91561,0.1613,-0.8442,-0.4875
91571,0.1613,-0.8419,-0.4835
91587,0.1608,-0.8378,-0.4760
91603,0.1605,-0.8346,-0.4694
91619,0.1610,-0.8325,-0.4646
91637,0.1627,-0.8306,-0.4622
91665,0.1689,-0.8287,-0.4666
91684,0.1727,-0.8270,-0.4727
91695,0.1768,-0.8248,-0.4796
91743,0.1871,-0.8192,-0.4819
91759,0.1920,-0.8190,-0.4768
91769,0.1982,-0.8214,-0.4596
91782,0.2023,-0.8241,-0.4474
91798,0.2124,-0.8326,-0.4155
91814,0.2261,-0.8462,-0.3734
91831,0.2434,-0.8650,-0.3209
91846,0.2642,-0.8889,-0.2589
91861,0.2881,-0.9174,-0.1888
91877,0.3146,-0.9491,-0.1133
91887,0.3289,-0.9656,-0.0742
91931,0.4050,-1.0446,0.1183
91942,0.4359,-1.0704,0.1893
91970,0.4794,-1.0990,0.2858
91980,0.4926,-1.1052,0.3147
91996,0.5162,-1.1124,0.3667
92012,0.5356,-1.1115,0.4097
92028,0.5502,-1.1018,0.4415
92046,0.5592,-1.0826,0.4625
92062,0.5631,-1.0541,0.4612
92078,0.5618,-1.0172,0.4437
92089,0.5554,-0.9735,0.4047
92131,0.5200,-0.8458,0.1990
92147,0.5011,-0.7888,0.0708
92162,0.4819,-0.7292,-0.0815
92172,0.4725,-0.6995,-0.1653
92187,0.4553,-0.6428,-0.3436
92201,0.4476,-0.6172,-0.4362
92220,0.4291,-0.5559,-0.7118
92228,0.4244,-0.5416,-0.7988
92241,0.4203,-0.5305,-0.8816
92276,0.4043,-0.5144,-1.1953
92288,0.4006,-0.5173,-1.2338
92298,0.3962,-0.5215,-1.2634
92330,0.3673,-0.5459,-1.3005
92346,0.3450,-0.5581,-1.2782
92362,0.3182,-0.5680,-1.2368
92372,0.3037,-0.5718,-1.2111
92388,0.2740,-0.5778,-1.1533
92404,0.2450,-0.5829,-1.0911
92420,0.2183,-0.5895,-1.0281
92438,0.1951,-0.6001,-0.9670
92454,0.1759,-0.6158,-0.9091
92469,0.1610,-0.6367,-0.8553
92485,0.1505,-0.6615,-0.8060
92527,0.1406,-0.7280,-0.7041
92543,0.1422,-0.7516,-0.6715
92578,0.1844,-0.7928,-0.6073
92588,0.1611,-0.7979,-0.5968
92604,0.1698,-0.8044,-0.5778
92615,0.1740,-0.8064,-0.5692
92631,0.1819,-0.8076,-0.5537
92649,0.1884,-0.8062,-0.5408
92665,0.1931,-0.8029,-0.5308
92681,0.1957,-0.7983,-0.5243
92697,0.1962,-0.7936,-0.5216
92711,0.1948,-0.7891,-0.5229
92760,0.1832,-0.7832,-0.5468
92776,0.1785,-0.7845,-0.5586
92786,0.1763,-0.7858,-0.5647
92799,0.1722,-0.7888,-0.5768
92815,0.1705,-0.7906,-0.5880
92831,0.1677,-0.7944,-0.5931
92849,0.1654,-0.7997,-0.6060
92885,0.1654,-0.8043,-0.6165
92901,0.1663,-0.8057,-0.6190
92947,0.1694,-0.8052,-0.6194
92962,0.1698,-0.8044,-0.6188
92983,0.1703,-0.8016,-0.6163
92994,0.1702,-0.8005,-0.6155
93010,0.1697,-0.7983,-0.6135
93026,0.1687,-0.7964,-0.6115
93041,0.1675,-0.7948,-0.6095
93057,0.1659,-0.7938,-0.6080
93073,0.1644,-0.7930,-0.6074
93089,0.1631,-0.7919,-0.6084
93099,0.1624,-0.7911,-0.6097
93117,0.1611,-0.7892,-0.6140
93133,0.1598,-0.7861,-0.6207
93149,0.1586,-0.7819,-0.6300
93191,0.1565,-0.7664,-0.6592
93237,0.1566,-0.7466,-0.6825
93247,0.1570,-0.7440,-0.6832
93262,0.1581,-0.7399,-0.6814
93278,0.1598,-0.7374,-0.6758
93294,0.1625,-0.7362,-0.6667
93311,0.1661,-0.7361,-0.6549
93345,0.1759,-0.7378,-0.6256
93361,0.1815,-0.7400,-0.6091
93376,0.1874,-0.7438,-0.5924
93386,0.1902,-0.7463,-0.5841
93402,0.1960,-0.7524,-0.5681
93418,0.2015,-0.7598,-0.5532
93434,0.2065,-0.7682,-0.5399
93452,0.2106,-0.7773,-0.5284
93468,0.2131,-0.7871,-0.5189
93483,0.2139,-0.7968,-0.5120
93499,0.2131,-0.8055,-0.5081
93527,0.2086,-0.8185,-0.5110
93561,0.2054,-0.8245,-0.5273
93577,0.2052,-0.8263,-0.5385
93593,0.2058,-0.8280,-0.5497
93603,0.2064,-0.8291,-0.5549
93619,0.2083,-0.8319,-0.5636
93630,0.2094,-0.8336,-0.5669
93646,0.2120,-0.8378,-0.5708
93664,0.2151,-0.8429,-0.5708
93680,0.2186,-0.8489,-0.5665
93696,0.2222,-0.8553,-0.5581
93712,0.2253,-0.8621,-0.5458
93730,0.2273,-0.8687,-0.5302
93742,0.2275,-0.8738,-0.5126
93758,0.2263,-0.8767,-0.4948
93774,0.2239,-0.8768,-0.4790
93841,0.2135,-0.8557,-0.4653
93874,0.2096,-0.8430,-0.4854
93884,0.2086,-0.8407,-0.4912
93900,0.2065,-0.8380,-0.5022
93916,0.2043,-0.8379,-0.5111
93932,0.2020,-0.8402,-0.5172
93965,0.1971,-0.8505,-0.5194
94009,0.1901,-0.8649,-0.5021
94025,0.1864,-0.8691,-0.4880
94043,0.1797,-0.8737,-0.4600
94058,0.1771,-0.8748,-0.4492
94074,0.1719,-0.8765,-0.4270
94090,0.1669,-0.8777,-0.4050
94108,0.1606,-0.8784,-0.3761
94124,0.1591,-0.8784,-0.3606
94140,0.1566,-0.8784,-0.3542
94150,0.1554,-0.8783,-0.3438
94178,0.1555,-0.8788,-0.3333
94212,0.1598,-0.8818,-0.3239
94228,0.1633,-0.8854,-0.3191
94244,0.1677,-0.8904,-0.3131
94254,0.1702,-0.8936,-0.3096
94270,0.1753,-0.9006,-0.3008
94286,0.1805,-0.9083,-0.2897
94299,0.1857,-0.9160,-0.2759
94317,0.1907,-0.9233,-0.2593
94333,0.1954,-0.9302,-0.2397
94351,0.2002,-0.9366,-0.2179
94364,0.2052,-0.9424,-0.1941
94403,0.2230,-0.9532,-0.1298
94418,0.2280,-0.9548,-0.1162
94434,0.2397,-0.9581,-0.0884
94444,0.2539,-0.9620,-0.0591
94480,0.2878,-0.9739,0.0032
94496,0.3070,-0.9812,0.0342
94506,0.3170,-0.9846,0.0488
94522,0.3379,-0.9906,0.0748
94538,0.3594,-0.9944,0.0944
94556,0.3806,-0.9952,0.1051
94595,0.4269,-0.9827,0.0834
94611,0.4408,-0.9706,0.0525
94627,0.4513,-0.9536,0.0078
94641,0.4580,-0.9310,-0.0518
94657,0.4606,-0.9022,-0.1271
94673,0.4584,-0.8661,-0.2189
94688,0.4553,-0.8451,-0.2710
94698,0.4454,-0.7965,-0.3864
94714,0.4312,-0.7395,-0.5144
94730,0.4139,-0.6760,-0.6499
94745,0.4045,-0.6431,-0.7185
94835,0.2946,-0.4130,-1.2445
94846,0.2764,-0.4126,-1.2683
94862,0.2584,-0.4215,-1.2708
94878,0.2402,-0.4368,-1.2546
94894,0.2213,-0.4556,-1.2227
94912,0.2017,-0.4767,-1.1780
94928,0.1818,-0.4996,-1.1240
94944,0.1627,-0.5244,-1.0647
94955,0.1539,-0.5376,-1.0341
94966,0.1456,-0.5515,-1.0034
95021,0.1097,-0.6613,-0.8099
95044,0.1041,-0.7061,-0.7462
95060,0.1021,-0.7310,-0.7111
95088,0.0999,-0.7578,-0.6689
95106,0.0979,-0.7708,-0.6392
95122,0.0973,-0.7721,-0.6257
95138,0.0963,-0.7710,-0.6208
95154,0.0957,-0.7655,-0.6144
95198,0.0950,-0.7360,-0.6167
95214,0.0947,-0.7257,-0.6217
95230,0.0944,-0.7170,-0.6278
95240,0.0941,-0.7135,-0.6311
95256,0.0938,-0.7085,-0.6381
95272,0.0940,-0.7063,-0.6455
95288,0.0948,-0.7065,-0.6531
95297,0.0956,-0.7076,-0.6567
95311,0.0975,-0.7111,-0.6637
95326,0.0988,-0.7133,-0.6670
95342,0.1011,-0.7181,-0.6727
95358,0.1034,-0.7231,-0.6776
95368,0.1053,-0.7274,-0.6815
95413,0.1075,-0.7333,-0.6887
95452,0.1064,-0.7334,-0.6927
95468,0.1053,-0.7329,-0.6934
95484,0.1040,-0.7324,-0.6938
95494,0.1033,-0.7319,-0.6940
95510,0.1016,-0.7310,-0.6942
95526,0.1001,-0.7294,-0.6942
95542,0.0989,-0.7275,-0.6940
95560,0.0981,-0.7255,-0.6930
95576,0.0978,-0.7235,-0.6913
95586,0.0979,-0.7227,-0.6902
95602,0.0985,-0.7213,-0.6877
95618,0.1000,-0.7203,-0.6851
95649,0.1052,-0.7209,-0.6801
95661,0.1069,-0.7218,-0.6791
95690,0.1151,-0.7277,-0.6783
95700,0.1174,-0.7295,-0.6792
95716,0.1221,-0.7330,-0.6826
95732,0.1268,-0.7358,-0.6887
95748,0.1317,-0.7377,-0.6971
95766,0.1366,-0.7383,-0.7073
95782,0.1412,-0.7380,-0.7180
95793,0.1458,-0.7371,-0.7284
95809,0.1481,-0.7365,-0.7330
95865,0.1664,-0.7305,-0.7451
95881,0.1731,-0.7281,-0.7401
95896,0.1808,-0.7253,-0.7311
95912,0.1892,-0.7222,-0.7186
95928,0.1981,-0.7189,-0.7035
95944,0.2070,-0.7156,-0.6863
95954,0.2113,-0.7141,-0.6771
95965,0.2184,-0.7117,-0.6582
96000,0.2242,-0.7112,-0.6194
96011,0.2235,-0.7124,-0.6102
96055,0.2017,-0.7347,-0.5691
96071,0.1957,-0.7408,-0.5619
96089,0.1764,-0.7625,-0.5575
96105,0.1632,-0.7788,-0.5554
96121,0.1510,-0.7957,-0.5547
96136,0.1454,-0.8041,-0.5546
96154,0.1306,-0.8274,-0.5537
96170,0.1228,-0.8402,-0.5519
96185,0.1196,-0.8457,-0.5504
96201,0.1143,-0.8542,-0.5464
96212,0.1106,-0.8599,-0.5410
96246,0.1079,-0.8634,-0.5288
96262,0.1093,-0.8619,-0.5232
96278,0.1122,-0.8589,-0.5187
96325,0.1306,-0.8483,-0.5117
96336,0.1346,-0.8473,-0.5112
96352,0.1432,-0.8464,-0.5098
96368,0.1519,-0.8477,-0.5074
96384,0.1598,-0.8507,-0.5034
96397,0.1635,-0.8530,-0.5005
96438,0.1749,-0.8688,-0.4762
96454,0.1759,-0.8754,-0.4624
96470,0.1749,-0.8810,-0.4473
96480,0.1738,-0.8832,-0.4395
96496,0.1702,-0.8864,-0.4237
96512,0.1654,-0.8878,-0.4083
96528,0.1602,-0.8878,-0.3934
96546,0.1523,-0.8870,-0.3727
96562,0.1503,-0.8870,-0.3599
96578,0.1471,-0.8873,-0.3538
96614,0.1467,-0.8942,-0.3240
96648,0.1522,-0.9052,-0.2959
96664,0.1561,-0.9122,-0.2791
96675,0.1581,-0.9161,-0.2698
96685,0.1617,-0.9243,-0.2496
96701,0.1635,-0.9286,-0.2277
96717,0.1663,-0.9369,-0.2162
96733,0.1682,-0.9446,-0.1931
96751,0.1697,-0.9540,-0.1603
96766,0.1698,-0.9564,-0.1504
96782,0.1698,-0.9598,-0.1324
96798,0.1697,-0.9614,-0.1171
96816,0.1704,-0.9603,-0.0975
96827,0.1713,-0.9592,-0.0913
96843,0.1744,-0.9565,-0.0780
96859,0.1802,-0.9546,-0.0621
96915,0.2318,-0.9711,0.0216
96948,0.2830,-0.9967,0.0754
96958,0.2966,-1.0029,0.0869
96974,0.3230,-1.0134,0.1060
96989,0.3461,-1.0186,0.1183
97005,0.3641,-1.0161,0.1227
97016,0.3710,-1.0115,0.1216
97037,0.3827,-0.9829,0.1031
97048,0.3839,-0.9688,0.0916
97064,0.3829,-0.9335,0.0598
97080,0.3789,-0.8900,0.0155
97127,0.3849,-0.7262,-0.2322
97142,0.3939,-0.6964,-0.2968
97152,0.4207,-0.6360,-0.4470
97167,0.4375,-0.6055,-0.5310
97183,0.4747,-0.5450,-0.7094
97199,0.5104,-0.4871,-0.8892
97217,0.5464,-0.4108,-1.1299
97245,0.5507,-0.3538,-1.3069
97256,0.5448,-0.3396,-1.3491
97272,0.5234,-0.3188,-1.4078
97303,0.4519,-0.3073,-1.4293
97312,0.4302,-0.3110,-1.4169
97328,0.3843,-0.3267,-1.3734
97339,0.3607,-0.3385,-1.3094
97353,0.3143,-0.3702,-1.2714
97369,0.2706,-0.4113,-1.1865
97385,0.2322,-0.4591,-1.0951
97401,0.2006,-0.5112,-1.0028
97411,0.1879,-0.5378,-0.9579
97427,0.1683,-0.5902,-0.8730
97439,0.1567,-0.6389,-0.7974
97457,0.1516,-0.6813,-0.7324
97496,0.1578,-0.7504,-0.6202
97510,0.1609,-0.7576,-0.6057
97546,0.1782,-0.7672,-0.5646
97556,0.1816,-0.7655,-0.5615
97572,0.1886,-0.7601,-0.5594
97588,0.1953,-0.7537,-0.5616
97604,0.2018,-0.7474,-0.5670
97615,0.2048,-0.7448,-0.5706
97625,0.2078,-0.7426,-0.5745
97641,0.2130,-0.7396,-0.5829
97663,0.2191,-0.7389,-0.5957
97679,0.2217,-0.7402,-0.6034
97711,0.2235,-0.7455,-0.6161
97727,0.2231,-0.7482,-0.6211
97743,0.2218,-0.7502,-0.6256
97753,0.2207,-0.7510,-0.6276
97769,0.2180,-0.7516,-0.6310
97785,0.2145,-0.7513,-0.6339
97801,0.2103,-0.7500,-0.6365
97819,0.2058,-0.7479,-0.6387
97847,0.1971,-0.7424,-0.6432
97866,0.1935,-0.7394,-0.6456
97922,0.1879,-0.7294,-0.6558
97938,0.1886,-0.7272,-0.6589
97954,0.1903,-0.7253,-0.6626
97970,0.1927,-0.7238,-0.6674
97985,0.1941,-0.7230,-0.6703
98000,0.1971,-0.7216,-0.6777
98010,0.1986,-0.7206,-0.6879
98026,0.2015,-0.7183,-0.6941
98042,0.2045,-0.7152,-0.7089
98058,0.2069,-0.7111,-0.7264
98068,0.2091,-0.7061,-0.7465
98112,0.2123,-0.6906,-0.7992
98159,0.2128,-0.6678,-0.8467
98169,0.2126,-0.6637,-0.8511
98185,0.2124,-0.6554,-0.8560
98201,0.2119,-0.6475,-0.8551
98217,0.2111,-0.6409,-0.8483
98235,0.2101,-0.6364,-0.8353
98251,0.2091,-0.6345,-0.8168
98269,0.2084,-0.6355,-0.7936
98280,0.2083,-0.6371,-0.7666
98319,0.2103,-0.6534,-0.7059
98335,0.2120,-0.6622,-0.6741
98351,0.2133,-0.6715,-0.6423
98361,0.2136,-0.6761,-0.6267
98377,0.2133,-0.6854,-0.5968
98393,0.2115,-0.6947,-0.5696
98409,0.2086,-0.7039,-0.5461
98430,0.2025,-0.7179,-0.5203
98466,0.1951,-0.7388,-0.5056
98476,0.1938,-0.7446,-0.5052
98515,0.1942,-0.7793,-0.5175
98531,0.1973,-0.7957,-0.5261
98546,0.2018,-0.8126,-0.5358
98556,0.2043,-0.8209,-0.5408
98571,0.2102,-0.8368,-0.5503
98587,0.2162,-0.8502,-0.5590
98602,0.2217,-0.8605,-0.5662
98613,0.2241,-0.8643,-0.5692
98623,0.2263,-0.8673,-0.5719
98638,0.2299,-0.8712,-0.5763
98653,0.2322,-0.8727,-0.5793
98669,0.2332,-0.8722,-0.5813
98679,0.2332,-0.8712,-0.5819
98711,0.2314,-0.8645,-0.5824
98727,0.2300,-0.8599,-0.5813
98762,0.2271,-0.8503,-0.5758
98772,0.2258,-0.8459,-0.5712
98787,0.2252,-0.8440,-0.5684
98803,0.2240,-0.8403,-0.5618
98819,0.2227,-0.8369,-0.5537
98837,0.2200,-0.8326,-0.5396
98853,0.2188,-0.8314,-0.5344
98869,0.2161,-0.8296,-0.5238
98888,0.2107,-0.8280,-0.5073
98950,0.1918,-0.8268,-0.4624
98965,0.1848,-0.8276,-0.4465
98981,0.1777,-0.8295,-0.4294
98997,0.1713,-0.8324,-0.4119
99012,0.1660,-0.8368,-0.3943
99022,0.1639,-0.8396,-0.3857
99037,0.1613,-0.8467,-0.3694
99076,0.1637,-0.8708,-0.3329
99091,0.1680,-0.8817,-0.3193
99102,0.1704,-0.8872,-0.3125
99118,0.1760,-0.8978,-0.2985
99134,0.1818,-0.9078,-0.2834
99185,0.1967,-0.9288,-0.2273
99201,0.2012,-0.9324,-0.2048
99219,0.2063,-0.9348,-0.1807
99235,0.2125,-0.9366,-0.1548
99251,0.2202,-0.9387,-0.1271
99267,0.2295,-0.9419,-0.0977
99284,0.2405,-0.9468,-0.0669
99295,0.2467,-0.9500,-0.0511
99305,0.2603,-0.9579,-0.0197
99321,0.2754,-0.9677,0.0105
99337,0.2920,-0.9785,0.0376
99369,0.3197,-0.9994,0.0747
99403,0.3691,-1.0100,0.0789
99416,0.3788,-1.0100,0.0741
99432,0.3966,-1.0062,0.0576
99448,0.4110,-0.9973,0.0330
99464,0.4200,-0.9838,0.0012
99486,0.4207,-0.9548,-0.0586
99502,0.4130,-0.9286,-0.1069
99512,0.4073,-0.9128,-0.1342
99528,0.3936,-0.8755,-0.1962
99559,0.3641,-0.7782,-0.3585
99575,0.3522,-0.7196,-0.4606
99591,0.3435,-0.6562,-0.5734
99601,0.3403,-0.6238,-0.6323
99617,0.3363,-0.5599,-0.7513
99628,0.3353,-0.5297,-0.8096
99644,0.3347,-0.4751,-0.9194
99662,0.3352,-0.4314,-1.0155
99692,0.3345,-0.3842,-1.1532
99708,0.3307,-0.3802,-1.1940
99719,0.3274,-0.3826,-1.2078
99750,0.3040,-0.4122,-1.2242
99766,0.2856,-0.4351,-1.2118
99782,0.2634,-0.4612,-1.1870
99792,0.2511,-0.4750,-1.1704
99808,0.2253,-0.5037,-1.1299
99824,0.1995,-0.5334,-1.0812
99840,0.1753,-0.5638,-1.0265
99858,0.1545,-0.5944,-0.9686
99874,0.1382,-0.6245,-0.9098
99890,0.1268,-0.6532,-0.8528
99906,0.1206,-0.6793,-0.7997
99965,0.1281,-0.7338,-0.6672
99979,0.1348,-0.7371,-0.6471
100026,0.1576,-0.7266,-0.6274
100042,0.1650,-0.7209,-0.6309
100057,0.1721,-0.7162,-0.6372
100073,0.1785,-0.7129,-0.6450
100088,0.1813,-0.7120,-0.6492
100104,0.1860,-0.7115,-0.6571
100114,0.1893,-0.7129,-0.6641
100136,0.1913,-0.7152,-0.6699
100152,0.1918,-0.7180,-0.6742
100168,0.1913,-0.7209,-0.6771
100212,0.1852,-0.7263,-0.6785
100227,0.1837,-0.7266,-0.6777
100245,0.1788,-0.7262,-0.6742
100260,0.1770,-0.7258,-0.6724
100276,0.1733,-0.7249,-0.6682
100311,0.1649,-0.7236,-0.6553
100321,0.1636,-0.7238,-0.6527
100332,0.1625,-0.7242,-0.6503
100343,0.1608,-0.7257,-0.6459
100358,0.1602,-0.7266,-0.6439
100373,0.1594,-0.7286,-0.6404
100404,0.1588,-0.7322,-0.6355
100420,0.1584,-0.7333,-0.6343
100436,0.1580,-0.7336,-0.6339
100449,0.1575,-0.7333,-0.6346
100464,0.1561,-0.7328,-0.6353
100480,0.1542,-0.7313,-0.6370
100492,0.1516,-0.7294,-0.6390
100509,0.1486,-0.7269,-0.6412
100525,0.1449,-0.7246,-0.6436
100543,0.1410,-0.7223,-0.6458
100558,0.1370,-0.7202,-0.6481
100569,0.1351,-0.7194,-0.6492
100601,0.1282,-0.7177,-0.6541
100629,0.1230,-0.7206,-0.6583
100647,0.1215,-0.7236,-0.6604
100663,0.1211,-0.7271,-0.6625
100679,0.1217,-0.7303,-0.6648
100695,0.1233,-0.7328,-0.6674
100713,0.1257,-0.7343,-0.6703
100729,0.1285,-0.7345,-0.6736
100747,0.1315,-0.7338,-0.6770
100763,0.1342,-0.7325,-0.6804
100802,0.1381,-0.7290,-0.6871
100818,0.1384,-0.7277,-0.6901
100834,0.1384,-0.7257,-0.6942
100844,0.1384,-0.7245,-0.6970
100860,0.1384,-0.7209,-0.7043
100876,0.1389,-0.7158,-0.7144
100887,0.1394,-0.7126,-0.7205
100905,0.1406,-0.7056,-0.7349
100933,0.1443,-0.6902,-0.7714
100952,0.1466,-0.6832,-0.7914
101008,0.1575,-0.6703,-0.8447
101021,0.1588,-0.6710,-0.8477
101031,0.1606,-0.6744,-0.8488
101046,0.1610,-0.6771,-0.8466
101061,0.1605,-0.6837,-0.8362
101088,0.1536,-0.6991,-0.7920
101104,0.1470,-0.7063,-0.7599
101119,0.1428,-0.7096,-0.7419
101135,0.1333,-0.7150,-0.7039
101153,0.1167,-0.7192,-0.6451
101197,0.0858,-0.7170,-0.5575
101213,0.0731,-0.7159,-0.5288
101241,0.0549,-0.7186,-0.4956
101251,0.0446,-0.7250,-0.4812
101262,0.0404,-0.7297,-0.4766
101278,0.0342,-0.7421,-0.4727
101294,0.0319,-0.7581,-0.4758
101312,0.0337,-0.7770,-0.4854
101321,0.0361,-0.7872,-0.4919
101337,0.0439,-0.8086,-0.5081
101355,0.0548,-0.8304,-0.5259
101395,0.0876,-0.8810,-0.5636
101411,0.1000,-0.8969,-0.5707
101427,0.1101,-0.9092,-0.5713
101437,0.1143,-0.9142,-0.5692
101453,0.1202,-0.9221,-0.5604
101469,0.1232,-0.9277,-0.5466
101485,0.1232,-0.9316,-0.5292
101503,0.1207,-0.9341,-0.5096
101519,0.1162,-0.9351,-0.4896
101553,0.1038,-0.9315,-0.4535
101563,0.0969,-0.9271,-0.4388
101597,0.0841,-0.9150,-0.4176
101613,0.0785,-0.9086,-0.4105
101629,0.0740,-0.9025,-0.4053
101639,0.0721,-0.8997,-0.4033
101655,0.0693,-0.8947,-0.4004
101671,0.0677,-0.8907,-0.3988
101687,0.0670,-0.8877,-0.3983
101705,0.0669,-0.8854,-0.3987
101721,0.0671,-0.8835,-0.3999
101737,0.0673,-0.8820,-0.4017
101753,0.0670,-0.8802,-0.4039
101795,0.0640,-0.8741,-0.4095
101811,0.0620,-0.8716,-0.4114
101827,0.0599,-0.8695,-0.4130
101868,0.0563,-0.8676,-0.4143
101884,0.0557,-0.8682,-0.4130
101895,0.0557,-0.8685,-0.4115
101905,0.0559,-0.8691,-0.4094
101921,0.0569,-0.8705,-0.4030
101937,0.0588,-0.8723,-0.3923
101953,0.0621,-0.8750,-0.3761
101971,0.0699,-0.8827,-0.3390
101982,0.0736,-0.8868,-0.3230
101998,0.0826,-0.8982,-0.2858
102014,0.0944,-0.9137,-0.2423
102070,0.1559,-0.9879,-0.0601
102083,0.1663,-0.9989,-0.0322
102093,0.1768,-1.0096,-0.0044
102109,0.1980,-1.0295,0.0504
102125,0.2192,-1.0469,0.1024
102161,0.2726,-1.0776,0.2017
102175,0.2831,-1.0811,0.2133
102186,0.3033,-1.0840,0.2258
102202,0.3217,-1.0811,0.2228
102218,0.3372,-1.0717,0.2037
102269,0.3588,-0.9958,0.0530
102285,0.3568,-0.9537,-0.0287
102303,0.3507,-0.9034,-0.1295
102319,0.3417,-0.8447,-0.2529
102335,0.3308,-0.7760,-0.3995
102351,0.3187,-0.6973,-0.5642
102369,0.3052,-0.6112,-0.7371
102387,0.2902,-0.5242,-0.9067
102403,0.2739,-0.4431,-1.0627
102419,0.2576,-0.3737,-1.1981
102458,0.2231,-0.2653,-1.4197
102486,0.2084,-0.2444,-1.4609
102504,0.1953,-0.2528,-1.4313
102515,0.1909,-0.2616,-1.4072
102531,0.1823,-0.2870,-1.3416
102547,0.1737,-0.3217,-1.2584
102565,0.1659,-0.3634,-1.1653
102581,0.1582,-0.4098,-1.0695
102596,0.1501,-0.4585,-0.9767
102612,0.1405,-0.5071,-0.8917
102654,0.1067,-0.6152,-0.7321
102670,0.0911,-0.6492,-0.6926
102686,0.0759,-0.6768,-0.6669
102696,0.0691,-0.6880,-0.6587
102712,0.0568,-0.7058,-0.6503
102728,0.0469,-0.7174,-0.6500
102744,0.0392,-0.7235,-0.6549
102762,0.0332,-0.7251,-0.6620
102790,0.0256,-0.7188,-0.6742
102801,0.0245,-0.7161,-0.6760
102817,0.0232,-0.7102,-0.6782
102852,0.0238,-0.6996,-0.6785
102868,0.0254,-0.6958,-0.6776
102884,0.0273,-0.6931,-0.6771
102894,0.0284,-0.6921,-0.6770
102910,0.0306,-0.6912,-0.6776
102926,0.0328,-0.6914,-0.6792
102942,0.0353,-0.6925,-0.6823
102960,0.0382,-0.6945,-0.6868
102976,0.0415,-0.6968,-0.6925
102992,0.0450,-0.6992,-0.6990
103007,0.0486,-0.7014,-0.7054
103064,0.0547,-0.7036,-0.7203
103123,0.0443,-0.7003,-0.7209
103139,0.0383,-0.6990,-0.7189
103155,0.0319,-0.6979,-0.7159
103171,0.0259,-0.6971,-0.7126
103187,0.0211,-0.6969,-0.7095
103200,0.0183,-0.6973,-0.7073
103211,0.0177,-0.6975,-0.7065
103227,0.0182,-0.6984,-0.7062
103243,0.0203,-0.6992,-0.7069
103295,0.0316,-0.7002,-0.7108
103311,0.0355,-0.6997,-0.7120
103330,0.0410,-0.6971,-0.7152
103345,0.0427,-0.6957,-0.7169
103361,0.0460,-0.6913,-0.7218
103390,0.0513,-0.6768,-0.7375
103400,0.0522,-0.6721,-0.7424
103418,0.0537,-0.6624,-0.7527
103434,0.0544,-0.6525,-0.7631
103450,0.0547,-0.6437,-0.7726
103489,0.0551,-0.6316,-0.7867
103505,0.0558,-0.6323,-0.7860
103521,0.0573,-0.6364,-0.7806
103534,0.0581,-0.6433,-0.7705
103550,0.0602,-0.6477,-0.7638
103566,0.0624,-0.6578,-0.7472
103582,0.0645,-0.6692,-0.7277
103592,0.0665,-0.6813,-0.7062
103605,0.0674,-0.6875,-0.6953
103623,0.0692,-0.7008,-0.6738
103639,0.0708,-0.7148,-0.6539
103681,0.0770,-0.7516,-0.6112
103716,0.0936,-0.7814,-0.5995
103726,0.0991,-0.7860,-0.5983
103742,0.1123,-0.7939,-0.5972
103758,0.1273,-0.8000,-0.5962
103774,0.1429,-0.8040,-0.5941
103792,0.1573,-0.8053,-0.5897
103808,0.1692,-0.8037,-0.5819
103826,0.1785,-0.7997,-0.5709
103842,0.1857,-0.7941,-0.5579
103853,0.1888,-0.7913,-0.5443
103885,0.2012,-0.7850,-0.5267
103901,0.2076,-0.7867,-0.5183
103917,0.2139,-0.7914,-0.5128
103927,0.2478,-0.7981,-0.5096
103943,0.2208,-0.8018,-0.5089
103959,0.2230,-0.8092,-0.5087
103975,0.2227,-0.8157,-0.5095
104013,0.2139,-0.8264,-0.5170
104032,0.2094,-0.8291,-0.5222
104048,0.2054,-0.8315,-0.5288
104108,0.2031,-0.8424,-0.5657
104120,0.2039,-0.8433,-0.5708
104130,0.2048,-0.8439,-0.5758
104146,0.2068,-0.8439,-0.5854
104162,0.2084,-0.8420,-0.5941
104178,0.2095,-0.8383,-0.6014
104189,0.2096,-0.8324,-0.6072
104199,0.2094,-0.8287,-0.6094
104215,0.2083,-0.8206,-0.6123
104233,0.2065,-0.8116,-0.6133
104249,0.2042,-0.8027,-0.6129
104301,0.1958,-0.7811,-0.6071
104329,0.1892,-0.7726,-0.6039
104339,0.1875,-0.7710,-0.6034
104355,0.1843,-0.7684,-0.6030
104371,0.1818,-0.7664,-0.6034
104387,0.1798,-0.7644,-0.6045
104405,0.1792,-0.7632,-0.6063
104421,0.1802,-0.7628,-0.6088
104439,0.1833,-0.7635,-0.6116
104455,0.1885,-0.7645,-0.6144
104494,0.2043,-0.7633,-0.6213
104510,0.2084,-0.7606,-0.6245
104521,0.2094,-0.7589,-0.6261
104539,0.2087,-0.7556,-0.6290
104555,0.2047,-0.7526,-0.6315
104571,0.1976,-0.7502,-0.6335
104587,0.1882,-0.7489,-0.6350
104605,0.1774,-0.7485,-0.6359
104644,0.1514,-0.7505,-0.6361
104654,0.1471,-0.7509,-0.6361
104663,0.1434,-0.7510,-0.6361
104698,0.1321,-0.7495,-0.6377
104714,0.1304,-0.7485,-0.6385
104730,0.1302,-0.7478,-0.6392
104740,0.1307,-0.7477,-0.6393
104756,0.1331,-0.7476,-0.6392
104772,0.1367,-0.7480,-0.6384
104788,0.1412,-0.7488,-0.6370
104806,0.1460,-0.7499,-0.6351
104817,0.1482,-0.7504,-0.6340
104833,0.1519,-0.7515,-0.6318
104849,0.1542,-0.7524,-0.6295
104859,0.1548,-0.7528,-0.6284
104891,0.1537,-0.7534,-0.6257
104907,0.1516,-0.7532,-0.6252
104935,0.1471,-0.7524,-0.6254
104945,0.1464,-0.7522,-0.6255
104961,0.1454,-0.7517,-0.6259
104977,0.1454,-0.7511,-0.6263
104993,0.1462,-0.7505,-0.6274
105011,0.1475,-0.7502,-0.6289
105027,0.1489,-0.7501,-0.6306
105043,0.1501,-0.7501,-0.6323
105062,0.1508,-0.7502,-0.6337
105111,0.1492,-0.7501,-0.6339
105136,0.1481,-0.7505,-0.6317
105151,0.1476,-0.7510,-0.6295
105167,0.1473,-0.7515,-0.6271
105183,0.1472,-0.7517,-0.6245
105199,0.1471,-0.7518,-0.6223
105209,0.1472,-0.7520,-0.6216
105237,0.1478,-0.7522,-0.6207
105252,0.1481,-0.7523,-0.6211
105262,0.1489,-0.7522,-0.6223
105306,0.1511,-0.7501,-0.6274
105322,0.1517,-0.7488,-0.6299
105341,0.1522,-0.7476,-0.6320
105357,0.1523,-0.7468,-0.6337
105373,0.1523,-0.7463,-0.6348
105389,0.1523,-0.7462,-0.6351
105407,0.1522,-0.7463,-0.6350
105423,0.1522,-0.7462,-0.6349
105439,0.1521,-0.7461,-0.6350
105450,0.1517,-0.7457,-0.6356
105492,0.1508,-0.7458,-0.6387
105508,0.1505,-0.7466,-0.6395
105544,0.1504,-0.7487,-0.6395
105554,0.1504,-0.7493,-0.6390
105570,0.1505,-0.7501,-0.6375
105586,0.1506,-0.7510,-0.6355
105602,0.1508,-0.7515,-0.6332
105619,0.1509,-0.7518,-0.6309
105631,0.1510,-0.7521,-0.6285
105647,0.1510,-0.7524,-0.6266
105663,0.1510,-0.7532,-0.6246
105673,0.1510,-0.7538,-0.6238
105705,0.1511,-0.7588,-0.6199
105721,0.1515,-0.7623,-0.6172
105737,0.1525,-0.7662,-0.6133
105750,0.1531,-0.7682,-0.6110
105766,0.1547,-0.7715,-0.6053
105777,0.1567,-0.7745,-0.5984
105792,0.1581,-0.7764,-0.5945
105810,0.1635,-0.7836,-0.5818
105844,0.1741,-0.7992,-0.5634
105860,0.1802,-0.8088,-0.5538
105902,0.1918,-0.8329,-0.5302
105918,0.1935,-0.8402,-0.5219
105934,0.1931,-0.8457,-0.5148
105944,0.1921,-0.8477,-0.5118
105960,0.1891,-0.8501,-0.5073
105976,0.1851,-0.8510,-0.5044
105992,0.1805,-0.8502,-0.5031
106010,0.1765,-0.8486,-0.5031
106026,0.1732,-0.8464,-0.5037
106042,0.1713,-0.8444,-0.5045
106058,0.1709,-0.8427,-0.5051
106076,0.1720,-0.8418,-0.5049
106090,0.1747,-0.8416,-0.5038
106106,0.1783,-0.8418,-0.5021
106122,0.1827,-0.8423,-0.5000
106166,0.1918,-0.8444,-0.4958
106215,0.1929,-0.8463,-0.4968
106231,0.1912,-0.8462,-0.4980
106241,0.1901,-0.8461,-0.4987
106257,0.1871,-0.8453,-0.4995
106273,0.1838,-0.8442,-0.4998
106291,0.1804,-0.8431,-0.4993
106345,0.1737,-0.8405,-0.4952
106361,0.1741,-0.8406,-0.4944
106377,0.1752,-0.8411,-0.4941
106393,0.1768,-0.8418,-0.4943
106409,0.1785,-0.8429,-0.4946
106425,0.1799,-0.8439,-0.4951
106458,0.1815,-0.8452,-0.4958
106474,0.1815,-0.8456,-0.4960
106492,0.1810,-0.8459,-0.4960
106524,0.1797,-0.8464,-0.4956
106540,0.1791,-0.8467,-0.4954
106556,0.1787,-0.8467,-0.4952
106566,0.1785,-0.8467,-0.4954
106582,0.1785,-0.8466,-0.4956
106598,0.1785,-0.8464,-0.4962
106614,0.1786,-0.8462,-0.4971
106631,0.1788,-0.8459,-0.4980
106647,0.1791,-0.8456,-0.4990
106663,0.1792,-0.8452,-0.4998
106679,0.1791,-0.8450,-0.5004
106721,0.1781,-0.8444,-0.5005
106730,0.1779,-0.8444,-0.5004
106762,0.1769,-0.8440,-0.4999
106775,0.1763,-0.8439,-0.4998
106791,0.1759,-0.8438,-0.4999
106807,0.1754,-0.8438,-0.5001
106823,0.1749,-0.8436,-0.5005
106833,0.1746,-0.8436,-0.5009
106848,0.1746,-0.8436,-0.5011
106864,0.1746,-0.8435,-0.5015
106880,0.1748,-0.8435,-0.5020
106922,0.1760,-0.8431,-0.5031
106938,0.1764,-0.8430,-0.5033
106954,0.1768,-0.8429,-0.5037
106964,0.1769,-0.8427,-0.5039
106979,0.1769,-0.8425,-0.5040
106995,0.1766,-0.8422,-0.5043
107010,0.1764,-0.8418,-0.5045
107027,0.1759,-0.8416,-0.5048
107038,0.1754,-0.8414,-0.5051
107066,0.1749,-0.8416,-0.5059
107082,0.1747,-0.8418,-0.5062
107092,0.1746,-0.8419,-0.5063
107103,0.1747,-0.8423,-0.5065
107118,0.1747,-0.8425,-0.5063
107134,0.1749,-0.8428,-0.5060
107158,0.1750,-0.8430,-0.5048
107210,0.1752,-0.8423,-0.5016
107226,0.1754,-0.8419,-0.5010
107236,0.1757,-0.8417,-0.5009
107252,0.1763,-0.8412,-0.5009
107268,0.1769,-0.8407,-0.5015
107284,0.1776,-0.8401,-0.5027
107302,0.1781,-0.8396,-0.5045
107313,0.1782,-0.8394,-0.5055
107329,0.1785,-0.8389,-0.5079
107338,0.1785,-0.8386,-0.5092
107374,0.1783,-0.8379,-0.5154
107419,0.1786,-0.8373,-0.5192
107430,0.1786,-0.8369,-0.5198
107446,0.1786,-0.8364,-0.5200
107465,0.1783,-0.8359,-0.5199
107473,0.1782,-0.8356,-0.5199
107486,0.1781,-0.8352,-0.5198
107503,0.1779,-0.8344,-0.5199
107537,0.1770,-0.8322,-0.5208
107551,0.1769,-0.8318,-0.5210
107567,0.1769,-0.8309,-0.5217
107577,0.1772,-0.8301,-0.5226
107593,0.1774,-0.8297,-0.5231
107609,0.1780,-0.8289,-0.5240
107624,0.1785,-0.8282,-0.5249
107642,0.1788,-0.8278,-0.5260
107656,0.1790,-0.8274,-0.5270
107684,0.1794,-0.8269,-0.5291
107699,0.1796,-0.8268,-0.5297
107709,0.1798,-0.8267,-0.5310
107719,0.1801,-0.8265,-0.5317
107735,0.1803,-0.8263,-0.5333
107751,0.1804,-0.8260,-0.5350
107767,0.1803,-0.8258,-0.5369
107799,0.1794,-0.8248,-0.5402
107808,0.1791,-0.8246,-0.5409
107824,0.1783,-0.8239,-0.5422
107845,0.1777,-0.8231,-0.5432
107861,0.1775,-0.8223,-0.5439
107877,0.1775,-0.8214,-0.5443
107893,0.1777,-0.8207,-0.5443
107903,0.1780,-0.8203,-0.5442
107921,0.1791,-0.8193,-0.5433
107936,0.1794,-0.8191,-0.5430
107947,0.1803,-0.8185,-0.5421
107987,0.1816,-0.8176,-0.5411
108032,0.1818,-0.8168,-0.5431
108042,0.1818,-0.8167,-0.5439
108058,0.1815,-0.8162,-0.5457
108074,0.1812,-0.8159,-0.5475
108090,0.1807,-0.8157,-0.5492
108108,0.1799,-0.8154,-0.5504
108127,0.1788,-0.8151,-0.5518
108141,0.1786,-0.8149,-0.5519
108157,0.1782,-0.8148,-0.5521
108169,0.1780,-0.8146,-0.5522
108218,0.1785,-0.8143,-0.5520
108234,0.1786,-0.8142,-0.5521
108244,0.1786,-0.8140,-0.5522
108260,0.1785,-0.8136,-0.5527
108271,0.1783,-0.8134,-0.5531
108287,0.1781,-0.8129,-0.5541
108325,0.1787,-0.8119,-0.5569
108336,0.1790,-0.8116,-0.5574
108352,0.1797,-0.8112,-0.5585
108404,0.1809,-0.8093,-0.5618
108419,0.1809,-0.8091,-0.5623
108437,0.1805,-0.8085,-0.5632
108452,0.1804,-0.8082,-0.5636
108468,0.1799,-0.8080,-0.5641
108484,0.1794,-0.8077,-0.5645
108501,0.1788,-0.8077,-0.5646
108517,0.1783,-0.8077,-0.5646
108533,0.1779,-0.8077,-0.5645
108543,0.1775,-0.8077,-0.5641
108559,0.1772,-0.8077,-0.5640
108591,0.1770,-0.8075,-0.5640
108603,0.1771,-0.8073,-0.5643
108631,0.1776,-0.8068,-0.5654
108641,0.1779,-0.8066,-0.5663
108657,0.1783,-0.8063,-0.5671
108673,0.1790,-0.8062,-0.5676
108686,0.1794,-0.8059,-0.5684
108704,0.1799,-0.8057,-0.5691
108720,0.1802,-0.8053,-0.5697
108736,0.1802,-0.8048,-0.5703
108746,0.1802,-0.8046,-0.5706
108762,0.1797,-0.8040,-0.5710
108794,0.1785,-0.8030,-0.5721
108810,0.1779,-0.8027,-0.5726
108826,0.1772,-0.8025,-0.5734
108836,0.1770,-0.8024,-0.5737
108852,0.1764,-0.8021,-0.5745
108868,0.1759,-0.8019,-0.5753
108884,0.1754,-0.8018,-0.5762
108895,0.1750,-0.8016,-0.5769
108908,0.1749,-0.8015,-0.5771
108936,0.1749,-0.8013,-0.5780
108954,0.1752,-0.8011,-0.5782
108994,0.1757,-0.8008,-0.5782
109010,0.1759,-0.8005,-0.5781
109026,0.1759,-0.8004,-0.5780
109036,0.1760,-0.8003,-0.5779
109052,0.1760,-0.8002,-0.5776
109068,0.1760,-0.8000,-0.5775
109084,0.1760,-0.7999,-0.5775
109102,0.1760,-0.7998,-0.5776
109118,0.1760,-0.7996,-0.5779
109134,0.1760,-0.7994,-0.5784
109149,0.1760,-0.7992,-0.5790
109172,0.1759,-0.7991,-0.5798
109235,0.1754,-0.7981,-0.5845
109271,0.1754,-0.7972,-0.5873
109287,0.1755,-0.7970,-0.5884
109303,0.1755,-0.7966,-0.5889
