timestamp,acc_x,acc_y,acc_z
54478,0.1459,-0.0038,0.9539
54812,0.1458,-0.0039,0.9591
54852,0.1458,-0.0039,0.9592
54873,0.1458,-0.0039,0.9594
54889,0.1458,-0.0038,0.9595
54912,0.1459,-0.0038,0.9596
54934,0.1459,-0.0038,0.9597
54957,0.1459,-0.0038,0.9598
54978,0.1459,-0.0037,0.9602
54997,0.1459,-0.0037,0.9604
55014,0.1459,-0.0037,0.9607
55030,0.1459,-0.0037,0.9611
55052,0.1460,-0.0037,0.9614
55087,0.1460,-0.0037,0.9620
55109,0.1460,-0.0037,0.9625
55149,0.1460,-0.0037,0.9629
55165,0.1460,-0.0037,0.9630
55187,0.1460,-0.0037,0.9631
55204,0.1459,-0.0037,0.9631
55230,0.1459,-0.0037,0.9631
55271,0.1459,-0.0037,0.9633
55289,0.1460,-0.0037,0.9633
55311,0.1461,-0.0037,0.9633
55332,0.1462,-0.0035,0.9634
55349,0.1464,-0.0035,0.9635
55372,0.1465,-0.0033,0.9639
55393,0.1465,-0.0033,0.9640
55416,0.1465,-0.0032,0.9642
55462,0.1464,-0.0028,0.9651
55496,0.1461,-0.0024,0.9657
55517,0.1460,-0.0022,0.9661
55542,0.1458,-0.0017,0.9666
55564,0.1456,-0.0015,0.9668
55587,0.1454,-0.0010,0.9672
55604,0.1454,-0.0007,0.9672
55626,0.1453,-0.0005,0.9673
55644,0.1453,-0.0001,0.9673
55702,0.1451,0.0009,0.9673
55723,0.1451,0.0011,0.9672
55766,0.1454,0.0017,0.9672
55787,0.1454,0.0020,0.9672
55805,0.1455,0.0021,0.9672
55826,0.1456,0.0023,0.9672
55844,0.1458,0.0024,0.9673
55893,0.1460,0.0031,0.9672
55914,0.1462,0.0034,0.9672
55931,0.1464,0.0035,0.9672
55954,0.1465,0.0037,0.9672
55973,0.1466,0.0039,0.9672
55989,0.1466,0.0040,0.9672
56009,0.1467,0.0042,0.9672
56031,0.1469,0.0045,0.9670
56076,0.1470,0.0048,0.9668
56102,0.1471,0.0049,0.9664
56123,0.1471,0.0050,0.9662
56148,0.1471,0.0051,0.9655
56170,0.1471,0.0051,0.9650
56192,0.1471,0.0051,0.9645
56210,0.1470,0.0051,0.9634
56232,0.1470,0.0051,0.9629
56250,0.1469,0.0051,0.9624
56302,0.1467,0.0051,0.9614
56323,0.1467,0.0051,0.9613
56340,0.1467,0.0051,0.9612
56374,0.1467,0.0052,0.9614
56397,0.1467,0.0054,0.9618
56418,0.1467,0.0055,0.9622
56441,0.1467,0.0056,0.9630
56458,0.1466,0.0056,0.9637
56496,0.1454,0.0048,0.9661
56518,0.1442,0.0039,0.9679
56542,0.1390,0.0010,0.9734
56564,0.1349,-0.0012,0.9772
56590,0.1232,-0.0056,0.9865
56611,0.1155,-0.0073,0.9921
56633,0.1067,-0.0081,0.9980
56650,0.0967,-0.0073,1.0043
56686,0.0739,-0.0002,1.0168
56709,0.0481,0.0161,1.0277
56752,0.0225,0.0421,1.0344
56774,0.0000,0.0756,1.0347
56792,-0.0093,0.0935,1.0319
56813,-0.0170,0.1113,1.0270
56836,-0.0276,0.1434,1.0120
56853,-0.0309,0.1566,1.0026
56871,-0.0331,0.1672,0.9924
56893,-0.0344,0.1746,0.9821
56943,-0.0361,0.1758,0.9536
56994,-0.0392,0.1458,0.9349
57010,-0.0416,0.1298,0.9319
57029,-0.0453,0.1117,0.9307
57052,-0.0563,0.0704,0.9336
57088,-0.0730,0.0259,0.9425
57109,-0.0836,0.0034,0.9485
57135,-0.1090,-0.0400,0.9623
57156,-0.1234,-0.0603,0.9692
57178,-0.1389,-0.0792,0.9761
57195,-0.1553,-0.0966,0.9824
57218,-0.1895,-0.1256,0.9929
57240,-0.2068,-0.1370,0.9968
57257,-0.2240,-0.1460,0.9995
57291,-0.2570,-0.1570,1.0012
57307,-0.2722,-0.1591,0.9999
57342,-0.3000,-0.1565,0.9928
57364,-0.3241,-0.1465,0.9796
57388,-0.3348,-0.1393,0.9711
57410,-0.3447,-0.1310,0.9613
57433,-0.3616,-0.1128,0.9388
57451,-0.3685,-0.1035,0.9265
57470,-0.3746,-0.0946,0.9138
57491,-0.3801,-0.0863,0.9010
57508,-0.3850,-0.0789,0.8884
57535,-0.3953,-0.0663,0.8655
57555,-0.4011,-0.0614,0.8556
57600,-0.4242,-0.0531,0.8351
57617,-0.4336,-0.0525,0.8313
57638,-0.4436,-0.0531,0.8290
57661,-0.4645,-0.0577,0.8285
57678,-0.4749,-0.0614,0.8306
57703,-0.4850,-0.0659,0.8340
57725,-0.5026,-0.0767,0.8451
57769,-0.5144,-0.0889,0.8605
57791,-0.5175,-0.1024,0.8785
57809,-0.5148,-0.1096,0.8879
57830,-0.5090,-0.1171,0.8971
57852,-0.4999,-0.1246,0.9058
57869,-0.4873,-0.1326,0.9133
57903,-0.4515,-0.1495,0.9240
57919,-0.4283,-0.1588,0.9266
57960,-0.3417,-0.1919,0.9226
57981,-0.3088,-0.2050,0.9177
58002,-0.2751,-0.2190,0.9113
58024,-0.2089,-0.2499,0.8950
58043,-0.1782,-0.2661,0.8860
58061,-0.1504,-0.2827,0.8770
58082,-0.1262,-0.2992,0.8683
58106,-0.0918,-0.3304,0.8530
58134,-0.0823,-0.3444,0.8473
58156,-0.0791,-0.3668,0.8402
58217,-0.1090,-0.3820,0.8409
58239,-0.1451,-0.3772,0.8474
58261,-0.1658,-0.3704,0.8521
58283,-0.1871,-0.3604,0.8573
58309,-0.2290,-0.3324,0.8695
58325,-0.2484,-0.3147,0.8761
58347,-0.2660,-0.2952,0.8828
58389,-0.3048,-0.2281,0.9033
58410,-0.3126,-0.2046,0.9099
58436,-0.3208,-0.1583,0.9222
58457,-0.3215,-0.1365,0.9280
58477,-0.3204,-0.1160,0.9333
58514,-0.3142,-0.0798,0.9430
58546,-0.3051,-0.0507,0.9517
58568,-0.2955,-0.0293,0.9597
58586,-0.2910,-0.0216,0.9634
58607,-0.2870,-0.0159,0.9668
58629,-0.2834,-0.0121,0.9700
58648,-0.2777,-0.0105,0.9755
58673,-0.2756,-0.0123,0.9777
58694,-0.2738,-0.0156,0.9795
58718,-0.2710,-0.0262,0.9819
58735,-0.2697,-0.0330,0.9825
58757,-0.2681,-0.0403,0.9827
58809,-0.2618,-0.0629,0.9806
58852,-0.2534,-0.0797,0.9778
58868,-0.2502,-0.0826,0.9773
58890,-0.2468,-0.0839,0.9775
58913,-0.2391,-0.0807,0.9797
58933,-0.2346,-0.0765,0.9817
58954,-0.2294,-0.0707,0.9840
58974,-0.2234,-0.0637,0.9865
59015,-0.1991,-0.0396,0.9930
59034,-0.1885,-0.0320,0.9941
59056,-0.1765,-0.0254,0.9943
59077,-0.1479,-0.0171,0.9905
59098,-0.1315,-0.0161,0.9863
59148,-0.0752,-0.0295,0.9634
59164,-0.0548,-0.0400,0.9524
59191,-0.0133,-0.0707,0.9260
59212,0.0072,-0.0908,0.9111
59236,0.0273,-0.1139,0.8955
59259,0.0649,-0.1687,0.8630
59281,0.0817,-0.2001,0.8468
59303,0.0968,-0.2339,0.8307
59323,0.1208,-0.3079,0.7993
59344,0.1295,-0.3470,0.7842
59380,0.1398,-0.4271,0.7552
59401,0.1418,-0.4670,0.7416
59454,0.1396,-0.6161,0.6940
59476,0.1392,-0.6487,0.6842
59494,0.1399,-0.6786,0.6752
59515,0.1418,-0.7058,0.6669
59538,0.1508,-0.7506,0.6528
59561,0.1578,-0.7681,0.6469
59577,0.1666,-0.7822,0.6415
59599,0.1772,-0.7932,0.6368
59641,0.2166,-0.8080,0.6266
59662,0.2308,-0.8075,0.6243
59688,0.2593,-0.7996,0.6211
59709,0.2732,-0.7926,0.6202
59758,0.3107,-0.7635,0.6221
59777,0.3213,-0.7521,0.6248
59798,0.3306,-0.7401,0.6285
59821,0.3450,-0.7157,0.6384
59865,0.3525,-0.6927,0.6500
59887,0.3525,-0.6740,0.6608
59905,0.3499,-0.6667,0.6650
59926,0.3456,-0.6613,0.6682
59951,0.3335,-0.6556,0.6711
59972,0.3264,-0.6553,0.6705
59989,0.3192,-0.6566,0.6685
60009,0.3121,-0.6593,0.6648
60059,0.2938,-0.6744,0.6443
60098,0.2814,-0.6959,0.6128
60115,0.2786,-0.7036,0.6013
60136,0.2764,-0.7114,0.5900
60158,0.2748,-0.7192,0.5792
60175,0.2736,-0.7269,0.5693
60192,0.2726,-0.7344,0.5608
60215,0.2719,-0.7474,0.5483
60249,0.2728,-0.7560,0.5439
60270,0.2744,-0.7573,0.5450
60295,0.2808,-0.7516,0.5536
60317,0.2859,-0.7433,0.5607
60339,0.2928,-0.7310,0.5693
60356,0.3014,-0.7144,0.5791
60397,0.3367,-0.6418,0.6110
60413,0.3506,-0.6124,0.6210
60440,0.3645,-0.5823,0.6302
60462,0.3903,-0.5255,0.6449
60487,0.4005,-0.5020,0.6500
60509,0.4125,-0.4701,0.6548
60529,0.4133,-0.4635,0.6544
60560,0.4039,-0.4692,0.6481
60581,0.3940,-0.4811,0.6423
60601,0.3811,-0.4980,0.6350
60638,0.3483,-0.5448,0.6163
60660,0.3101,-0.6031,0.5931
60711,0.2543,-0.6992,0.5519
60728,0.2384,-0.7306,0.5375
60749,0.2244,-0.7605,0.5234
60772,0.2025,-0.8127,0.4999
60789,0.1946,-0.8337,0.4924
60814,0.1885,-0.8503,0.4896
60835,0.1841,-0.8619,0.4924
60878,0.1765,-0.8647,0.5428
60899,0.1747,-0.8550,0.5737
60916,0.1724,-0.8406,0.6102
60940,0.1656,-0.7998,0.6945
60959,0.1609,-0.7751,0.7385
61000,0.1489,-0.7219,0.8203
61017,0.1422,-0.6954,0.8544
61070,0.1185,-0.6122,0.9099
61091,0.1154,-0.6007,0.8999
61114,0.1138,-0.5942,0.8799
61137,0.1165,-0.5961,0.8127
61159,0.1207,-0.6042,0.7675
61178,0.1271,-0.6172,0.7159
61201,0.1453,-0.6552,0.5999
61219,0.1569,-0.6792,0.5385
61252,0.1840,-0.7340,0.4166
61273,0.1986,-0.7631,0.3594
61324,0.2416,-0.8467,0.2167
61340,0.2537,-0.8699,0.1824
61362,0.2635,-0.8893,0.1564
61385,0.2751,-0.9133,0.1318
61402,0.2760,-0.9169,0.1343
61420,0.2733,-0.9142,0.1470
61441,0.2668,-0.9055,0.1694
61487,0.2249,-0.8457,0.2899
61508,0.2039,-0.8167,0.3440
61525,0.1803,-0.7844,0.4028
61548,0.1272,-0.7144,0.5281
61570,0.0995,-0.6785,0.5914
61588,0.0719,-0.6433,0.6531
61624,0.0209,-0.5792,0.7660
61640,-0.0010,-0.5521,0.8149
61667,-0.0336,-0.5116,0.8936
61688,-0.0438,-0.4989,0.9222
61713,-0.0515,-0.4889,0.9572
61735,-0.0497,-0.4910,0.9640
61757,-0.0444,-0.4971,0.9641
61775,-0.0260,-0.5197,0.9470
61797,-0.0139,-0.5350,0.9314
61819,-0.0005,-0.5522,0.9121
61873,0.0430,-0.6096,0.8405
61897,0.0709,-0.6476,0.7883
61933,0.0950,-0.6816,0.7384
61952,0.1051,-0.6967,0.7153
61975,0.1205,-0.7217,0.6742
61995,0.1255,-0.7318,0.6565
62016,0.1287,-0.7402,0.6409
62033,0.1301,-0.7472,0.6272
62050,0.1298,-0.7526,0.6156
62073,0.1241,-0.7592,0.5983
62118,0.1133,-0.7609,0.5883
62140,0.0986,-0.7588,0.5845
62158,0.0905,-0.7567,0.5845
62179,0.0820,-0.7543,0.5857
62201,0.0736,-0.7513,0.5878
62235,0.0574,-0.7452,0.5940
62258,0.0427,-0.7391,0.6018
62279,0.0363,-0.7365,0.6057
62321,0.0216,-0.7301,0.6163
62342,0.0183,-0.7289,0.6190
62366,0.0157,-0.7279,0.6212
62389,0.0128,-0.7275,0.6241
62411,0.0125,-0.7279,0.6249
62428,0.0126,-0.7286,0.6251
62451,0.0144,-0.7311,0.6245
62468,0.0159,-0.7327,0.6237
62510,0.0195,-0.7365,0.6212
62554,0.0258,-0.7427,0.6158
62576,0.0278,-0.7448,0.6139
62600,0.0316,-0.7487,0.6096
62629,0.0332,-0.7504,0.6074
62652,0.0359,-0.7535,0.6033
62669,0.0370,-0.7549,0.6014
62690,0.0380,-0.7561,0.5997
62720,0.0392,-0.7582,0.5969
62741,0.0396,-0.7590,0.5958
62767,0.0398,-0.7604,0.5940
62788,0.0398,-0.7611,0.5931
62810,0.0397,-0.7617,0.5925
62847,0.0396,-0.7640,0.5902
62863,0.0398,-0.7651,0.5891
62882,0.0403,-0.7667,0.5876
62903,0.0411,-0.7688,0.5856
62957,0.0469,-0.7788,0.5750
62982,0.0537,-0.7891,0.5626
63002,0.0579,-0.7952,0.5548
63024,0.0626,-0.8016,0.5461
63046,0.0725,-0.8154,0.5272
63066,0.0774,-0.8221,0.5175
63082,0.0818,-0.8284,0.5083
63102,0.0854,-0.8340,0.4998
63142,0.0901,-0.8445,0.4814
63178,0.0870,-0.8463,0.4760
63194,0.0836,-0.8459,0.4750
63216,0.0792,-0.8450,0.4749
63238,0.0739,-0.8435,0.4755
63255,0.0677,-0.8418,0.4768
63281,0.0543,-0.8374,0.4822
63300,0.0474,-0.8348,0.4872
63331,0.0333,-0.8285,0.5052
63353,0.0265,-0.8243,0.5197
63378,0.0132,-0.8138,0.5614
63399,0.0067,-0.8073,0.5885
63422,-0.0060,-0.7914,0.6515
63440,-0.0120,-0.7822,0.6851
63483,-0.0225,-0.7623,0.7482
63522,-0.0303,-0.7325,0.8088
63543,-0.0297,-0.7240,0.8142
63568,-0.0271,-0.7167,0.8103
63590,-0.0155,-0.7079,0.7719
63612,-0.0065,-0.7069,0.7369
63629,0.0050,-0.7085,0.6918
63652,0.0341,-0.7203,0.5732
63672,0.0515,-0.7306,0.5018
63718,0.1125,-0.7773,0.2571
63739,0.1348,-0.7971,0.1713
63757,0.1575,-0.8181,0.0867
63790,0.2024,-0.8618,-0.0714
63811,0.2238,-0.8832,-0.1409
63828,0.2438,-0.9033,-0.2014
63851,0.2783,-0.9374,-0.2892
63873,0.2921,-0.9504,-0.3136
63890,0.3030,-0.9602,-0.3236
63908,0.3107,-0.9664,-0.3187
63930,0.3149,-0.9690,-0.2985
63983,0.2958,-0.9456,-0.0771
64004,0.2826,-0.9324,0.0073
64026,0.2665,-0.9171,0.1001
64048,0.2275,-0.8812,0.3026
64100,0.1591,-0.8199,0.6168
64143,0.1125,-0.7773,0.8085
64165,0.0701,-0.7362,0.9675
64182,0.0516,-0.7169,1.0304
64204,0.0356,-0.6991,1.0804
64226,0.0226,-0.6829,1.1165
64244,0.0061,-0.6575,1.1433
64266,0.0029,-0.6489,1.1337
64288,0.0034,-0.6436,1.1088
64305,0.0074,-0.6416,1.0692
64322,0.0150,-0.6433,1.0157
64345,0.0400,-0.6577,0.8726
64384,0.0768,-0.6865,0.6910
64427,0.1482,-0.7532,0.3796
64444,0.1748,-0.7802,0.2737
64465,0.2020,-0.8083,0.1702
64487,0.2292,-0.8374,0.0710
64504,0.2559,-0.8663,-0.0217
64522,0.2815,-0.8945,-0.1064
64544,0.3274,-0.9453,-0.2455
64592,0.3745,-0.9977,-0.3593
64614,0.3826,-1.0063,-0.3684
64636,0.3864,-1.0101,-0.3625
64659,0.3804,-1.0018,-0.3060
64681,0.3707,-0.9902,-0.2563
64725,0.3177,-0.9301,-0.0320
64741,0.2937,-0.9034,0.0640
64778,0.2391,-0.8442,0.2786
64799,0.2098,-0.8127,0.3934
64825,0.1495,-0.7488,0.6272
64846,0.1198,-0.7174,0.7408
64868,0.0911,-0.6871,0.8486
64887,0.0396,-0.6315,1.0367
64908,0.0181,-0.6069,1.1122
64930,0.0002,-0.5853,1.1726
64986,-0.0260,-0.5359,1.2407
65029,-0.0103,-0.5383,1.1669
65046,0.0045,-0.5471,1.1052
65070,0.0458,-0.5796,0.9398
65099,0.0714,-0.6027,0.8400
65120,0.1296,-0.6606,0.6169
65145,0.1611,-0.6942,0.4987
65200,0.2885,-0.8402,0.0389
65221,0.3175,-0.8752,-0.0612
65238,0.3444,-0.9080,-0.1511
65260,0.3683,-0.9376,-0.2294
65283,0.4056,-0.9849,-0.3447
65301,0.4183,-1.0013,-0.3795
65334,0.4296,-1.0181,-0.3997
65351,0.4279,-1.0179,-0.3846
65380,0.4095,-1.0012,-0.3060
65402,0.3933,-0.9852,-0.2439
65430,0.3485,-0.9413,-0.0806
65451,0.3209,-0.9147,0.0173
65473,0.2910,-0.8860,0.1235
65490,0.2592,-0.8561,0.2357
65513,0.1929,-0.7952,0.4686
65535,0.1597,-0.7654,0.5844
65574,0.0968,-0.7094,0.8025
65596,0.0425,-0.6604,0.9875
65639,0.0013,-0.6211,1.1241
65661,-0.0231,-0.5936,1.2007
65679,-0.0283,-0.5851,1.2141
65700,-0.0287,-0.5803,1.2102
65722,-0.0243,-0.5796,1.1892
65747,-0.0016,-0.5907,1.0973
65776,0.0381,-0.6184,0.9457
65798,0.0634,-0.6381,0.8512
65834,0.1217,-0.6866,0.6349
65855,0.1536,-0.7145,0.5177
65881,0.2191,-0.7738,0.2773
65902,0.2513,-0.8038,0.1594
65949,0.3383,-0.8861,-0.1571
65998,0.4006,-0.9458,-0.3733
66013,0.4144,-0.9589,-0.4154
66035,0.4243,-0.9680,-0.4407
66055,0.4316,-0.9734,-0.4388
66075,0.4290,-0.9692,-0.4117
66097,0.4220,-0.9608,-0.3678
66118,0.4110,-0.9482,-0.3080
66141,0.3782,-0.9126,-0.1461
66161,0.3573,-0.8910,-0.0475
66182,0.3342,-0.8678,0.0603
66205,0.2838,-0.8192,0.2936
66248,0.2311,-0.7715,0.5342
66285,0.1570,-0.7072,0.8650
66303,0.1357,-0.6884,0.9575
66323,0.1169,-0.6713,1.0375
66342,0.1011,-0.6559,1.1030
66368,0.0789,-0.6320,1.1852
66387,0.0730,-0.6240,1.2002
66409,0.0708,-0.6191,1.1974
66439,0.0770,-0.6191,1.1398
66460,0.0853,-0.6243,1.0865
66500,0.1283,-0.6602,0.8458
66520,0.1475,-0.6782,0.7444
66542,0.1685,-0.6990,0.6359
66587,0.2383,-0.7728,0.2906
66640,0.3091,-0.8545,-0.0343
66662,0.3308,-0.8810,-0.1278
66682,0.3688,-0.9290,-0.2815
66702,0.3842,-0.9491,-0.3389
66725,0.3964,-0.9659,-0.3816
66744,0.4050,-0.9788,-0.4092
66767,0.4103,-0.9905,-0.4165
66785,0.4066,-0.9889,-0.3961
66802,0.3987,-0.9823,-0.3600
66823,0.3867,-0.9709,-0.3086
66868,0.3285,-0.9128,-0.0736
66911,0.2451,-0.8312,0.2467
66928,0.2140,-0.8018,0.3624
66949,0.1824,-0.7723,0.4785
66969,0.1508,-0.7435,0.5928
66992,0.1199,-0.7157,0.7028
67012,0.0630,-0.6646,0.9009
67031,0.0382,-0.6421,0.9851
67083,-0.0151,-0.5901,1.1588
67103,-0.0247,-0.5791,1.1866
67119,-0.0297,-0.5717,1.1986
67142,-0.0260,-0.5686,1.1746
67164,-0.0175,-0.5732,1.1396
67222,0.0323,-0.6115,0.9542
67272,0.1102,-0.7092,0.5736
67294,0.1713,-0.7390,0.4664
67312,0.2026,-0.7698,0.3583
67333,0.2339,-0.8009,0.2512
67356,0.2932,-0.8618,0.0480
67373,0.3202,-0.8903,-0.0446
67395,0.3446,-0.9167,-0.1290
67417,0.3660,-0.9406,-0.2040
67437,0.3839,-0.9613,-0.2682
67459,0.4084,-0.9922,-0.3608
67481,0.4147,-1.0015,-0.3878
67543,0.3988,-0.9960,-0.3621
67562,0.3850,-0.9840,-0.3232
67583,0.3677,-0.9681,-0.2727
67606,0.3236,-0.9265,-0.1404
67624,0.2977,-0.9019,-0.0616
67641,0.2697,-0.8756,0.0236
67662,0.2400,-0.8483,0.1130
67707,0.1469,-0.7681,0.3889
67728,0.1160,-0.7439,0.4771
67752,0.0576,-0.7028,0.6376
67773,0.0309,-0.6863,0.7075
67825,-0.0354,-0.6550,0.8649
67844,-0.0522,-0.6506,0.8987
67866,-0.0774,-0.6500,0.9385
67888,-0.0858,-0.6534,0.9452
67918,-0.0950,-0.6663,0.9358
67941,-0.0961,-0.6750,0.9213
67963,-0.0952,-0.6849,0.9011
67997,-0.0834,-0.7186,0.8177
68017,-0.0774,-0.7300,0.7854
68039,-0.0708,-0.7411,0.7522
68056,-0.0638,-0.7515,0.7189
68076,-0.0570,-0.7611,0.6864
68129,-0.0380,-0.7888,0.5754
68162,-0.0283,-0.7953,0.5371
68179,-0.0217,-0.7969,0.5231
68201,-0.0197,-0.7972,0.5123
68223,-0.0184,-0.7965,0.5049
68240,-0.0179,-0.7950,0.5006
68263,-0.0188,-0.7899,0.5006
68283,-0.0200,-0.7865,0.5043
68330,-0.0262,-0.7747,0.5260
68351,-0.0288,-0.7705,0.5356
68373,-0.0315,-0.7664,0.5458
68393,-0.0369,-0.7587,0.5664
68415,-0.0394,-0.7552,0.5763
68432,-0.0419,-0.7522,0.5857
68468,-0.0460,-0.7471,0.6021
68507,-0.0492,-0.7438,0.6144
68529,-0.0510,-0.7422,0.6224
68553,-0.0515,-0.7419,0.6249
68576,-0.0515,-0.7427,0.6271
68598,-0.0510,-0.7434,0.6270
68623,-0.0496,-0.7455,0.6248
68654,-0.0486,-0.7468,0.6230
68669,-0.0475,-0.7482,0.6207
68713,-0.0441,-0.7524,0.6128
68734,-0.0428,-0.7537,0.6100
68767,-0.0408,-0.7560,0.6044
68784,-0.0399,-0.7570,0.6018
68807,-0.0385,-0.7585,0.5970
68829,-0.0377,-0.7592,0.5951
68846,-0.0372,-0.7596,0.5933
68868,-0.0367,-0.7601,0.5918
68887,-0.0360,-0.7606,0.5898
68923,-0.0355,-0.7609,0.5889
68946,-0.0354,-0.7610,0.5889
68968,-0.0352,-0.7610,0.5890
68990,-0.0350,-0.7609,0.5897
69009,-0.0350,-0.7607,0.5902
69033,-0.0350,-0.7606,0.5909
69078,-0.0354,-0.7598,0.5929
69135,-0.0361,-0.7584,0.5956
69159,-0.0363,-0.7581,0.5963
69180,-0.0365,-0.7577,0.5969
69203,-0.0367,-0.7572,0.5979
69221,-0.0367,-0.7571,0.5983
69242,-0.0367,-0.7570,0.5985
69262,-0.0367,-0.7568,0.5988
69287,-0.0366,-0.7570,0.5990
69304,-0.0365,-0.7571,0.5989
69326,-0.0364,-0.7572,0.5989
69408,-0.0356,-0.7578,0.5980
69424,-0.0356,-0.7578,0.5978
69447,-0.0355,-0.7578,0.5974
69469,-0.0355,-0.7578,0.5972
69486,-0.0356,-0.7577,0.5969
69503,-0.0356,-0.7577,0.5968
69525,-0.0356,-0.7576,0.5966
69563,-0.0358,-0.7573,0.5961
69584,-0.0358,-0.7573,0.5959
69608,-0.0359,-0.7572,0.5958
69631,-0.0359,-0.7571,0.5956
69680,-0.0360,-0.7568,0.5956
69702,-0.0360,-0.7567,0.5956
69723,-0.0361,-0.7566,0.5957
69746,-0.0363,-0.7565,0.5957
69775,-0.0364,-0.7563,0.5958
69797,-0.0365,-0.7563,0.5958
69821,-0.0365,-0.7563,0.5958
69844,-0.0366,-0.7565,0.5957
69866,-0.0366,-0.7566,0.5956
69883,-0.0366,-0.7567,0.5953
69909,-0.0366,-0.7571,0.5950
69931,-0.0365,-0.7573,0.5946
69966,-0.0364,-0.7577,0.5941
70002,-0.0363,-0.7581,0.5936
70018,-0.0361,-0.7583,0.5934
70041,-0.0359,-0.7585,0.5930
70063,-0.0358,-0.7587,0.5928
70080,-0.0358,-0.7588,0.5925
70102,-0.0356,-0.7588,0.5923
70121,-0.0355,-0.7588,0.5916
70175,-0.0352,-0.7588,0.5897
70196,-0.0350,-0.7588,0.5887
70213,-0.0349,-0.7589,0.5875
70235,-0.0348,-0.7589,0.5861
70258,-0.0342,-0.7598,0.5823
70313,-0.0321,-0.7638,0.5746
70364,-0.0281,-0.7729,0.5640
70386,-0.0242,-0.7821,0.5551
70404,-0.0221,-0.7875,0.5500
70425,-0.0198,-0.7933,0.5448
70447,-0.0175,-0.7996,0.5391
70464,-0.0151,-0.8059,0.5330
70487,-0.0106,-0.8190,0.5199
70509,-0.0085,-0.8254,0.5129
70529,-0.0067,-0.8317,0.5057
70551,-0.0038,-0.8433,0.4910
70573,-0.0027,-0.8485,0.4836
70621,-0.0010,-0.8610,0.4629
70644,-0.0009,-0.8641,0.4567
70672,-0.0013,-0.8687,0.4459
70694,-0.0018,-0.8701,0.4414
70718,-0.0032,-0.8718,0.4343
70735,-0.0040,-0.8719,0.4318
70756,-0.0049,-0.8718,0.4298
70796,-0.0074,-0.8700,0.4274
70817,-0.0083,-0.8690,0.4275
70835,-0.0090,-0.8680,0.4281
70856,-0.0096,-0.8669,0.4290
70879,-0.0106,-0.8647,0.4314
70919,-0.0112,-0.8628,0.4344
70938,-0.0115,-0.8619,0.4360
70957,-0.0116,-0.8612,0.4375
70978,-0.0116,-0.8601,0.4402
71015,-0.0112,-0.8595,0.4424
71036,-0.0110,-0.8594,0.4434
71062,-0.0105,-0.8591,0.4451
71083,-0.0103,-0.8590,0.4460
71105,-0.0100,-0.8589,0.4474
71122,-0.0099,-0.8586,0.4492
71141,-0.0096,-0.8583,0.4517
71163,-0.0096,-0.8572,0.4598
71224,-0.0104,-0.8530,0.4987
71260,-0.0118,-0.8483,0.5345
71276,-0.0122,-0.8450,0.5568
71298,-0.0125,-0.8408,0.5812
71319,-0.0123,-0.8358,0.6072
71336,-0.0118,-0.8301,0.6337
71353,-0.0109,-0.8235,0.6595
71376,-0.0068,-0.8085,0.7045
71425,0.0070,-0.7836,0.7363
71446,0.0143,-0.7755,0.7333
71463,0.0233,-0.7683,0.7223
71485,0.0339,-0.7623,0.7031
71523,0.0753,-0.7559,0.5988
71569,0.1090,-0.7639,0.4973
71586,0.1450,-0.7820,0.3813
71616,0.1630,-0.7942,0.3212
71638,0.1978,-0.8236,0.2018
71662,0.2141,-0.8400,0.1447
71685,0.2437,-0.8740,0.0392
71707,0.2567,-0.8909,-0.0082
71725,0.2688,-0.9071,-0.0513
71746,0.2798,-0.9225,-0.0897
71769,0.2985,-0.9498,-0.1515
71821,0.3186,-0.9789,-0.2013
71842,0.3230,-0.9847,-0.2050
71881,0.3281,-0.9890,-0.1910
71903,0.3270,-0.9822,-0.1471
71921,0.3237,-0.9742,-0.1136
71942,0.3184,-0.9634,-0.0729
71961,0.3109,-0.9497,-0.0251
72005,0.2749,-0.8949,0.1533
72025,0.2585,-0.8733,0.2218
72046,0.2402,-0.8506,0.2931
72068,0.1985,-0.8030,0.4399
72087,0.1755,-0.7788,0.5135
72111,0.1519,-0.7548,0.5859
72134,0.1034,-0.7083,0.7241
72182,0.0338,-0.6473,0.9067
72231,-0.0226,-0.6023,1.0503
72254,-0.0366,-0.5916,1.0870
72273,-0.0479,-0.5833,1.1168
72292,-0.0558,-0.5771,1.1388
72317,-0.0614,-0.5723,1.1553
72336,-0.0587,-0.5732,1.1479
72358,-0.0522,-0.5767,1.1295
72384,-0.0282,-0.5906,1.0577
72400,-0.0109,-0.6012,1.0046
72422,0.0095,-0.6144,0.9406
72479,0.1146,-0.6930,0.5951
72522,0.1742,-0.7457,0.3901
72538,0.2039,-0.7742,0.2861
72561,0.2603,-0.8328,0.0851
72583,0.2860,-0.8616,-0.0084
72616,0.3304,-0.9152,-0.1733
72637,0.3483,-0.9388,-0.2422
72655,0.3628,-0.9598,-0.3004
72689,0.3811,-1.0022,-0.4048
72704,0.3846,-1.0022,-0.4048
72728,0.3806,-1.0109,-0.4111
72749,0.3733,-1.0089,-0.3948
72772,0.3488,-0.9929,-0.3237
72818,0.3129,-0.9623,-0.2048
72834,0.2913,-0.9423,-0.1296
72877,0.2155,-0.8684,0.1429
72898,0.1877,-0.8407,0.2440
72926,0.1311,-0.7834,0.4514
72946,0.1030,-0.7550,0.5543
72965,0.0758,-0.7272,0.6547
72990,0.0254,-0.6757,0.8420
73010,0.0029,-0.6526,0.9265
73028,-0.0171,-0.6316,1.0034
73072,-0.0603,-0.5823,1.1777
73119,-0.0739,-0.5557,1.2493
73136,-0.0714,-0.5522,1.2473
73157,-0.0654,-0.5518,1.2321
73202,-0.0275,-0.5695,1.1084
73222,-0.0088,-0.5822,1.0427
73240,0.0125,-0.5984,0.9663
73262,0.0360,-0.6182,0.8802
73309,0.1165,-0.6948,0.5791
73334,0.1727,-0.7567,0.3594
73354,0.2000,-0.7892,0.2495
73375,0.2257,-0.8220,0.1422
73430,0.3063,-0.9407,-0.2249
73447,0.3188,-0.9640,-0.2932
73496,0.3350,-1.0101,-0.4241
73518,0.3330,-1.0166,-0.4409
73536,0.3273,-1.0183,-0.4440
73557,0.3182,-1.0155,-0.4331
73580,0.2909,-0.9967,-0.3718
73597,0.2732,-0.9814,-0.3226
73619,0.2533,-0.9628,-0.2622
73645,0.2083,-0.9175,-0.1133
73674,0.1837,-0.8920,-0.0277
73696,0.1326,-0.8386,0.1573
73733,0.0807,-0.7856,0.3492
73750,0.0553,-0.7606,0.4435
73771,0.0309,-0.7372,0.5345
73794,-0.0145,-0.6964,0.7009
73812,-0.0349,-0.6796,0.7738
73833,-0.0535,-0.6652,0.8384
73856,-0.0701,-0.6536,0.8939
73886,-0.0970,-0.6379,0.9758
73909,-0.1157,-0.6318,1.0182
73933,-0.1219,-0.6322,1.0251
73954,-0.1265,-0.6343,1.0232
73975,-0.1304,-0.6436,0.9960
74010,-0.1292,-0.6577,0.9440
74052,-0.1241,-0.6747,0.8755
74068,-0.1207,-0.6836,0.8379
74107,-0.1089,-0.7101,0.7235
74128,-0.1047,-0.7184,0.6879
74152,-0.1007,-0.7261,0.6547
74175,-0.0933,-0.7394,0.5975
74197,-0.0900,-0.7449,0.5742
74214,-0.0872,-0.7496,0.5547
74237,-0.0825,-0.7566,0.5270
74262,-0.0808,-0.7589,0.5184
74317,-0.0780,-0.7612,0.5120
74353,-0.0782,-0.7581,0.5267
74376,-0.0790,-0.7561,0.5348
74397,-0.0798,-0.7537,0.5439
74418,-0.0822,-0.7480,0.5645
74440,-0.0836,-0.7449,0.5758
74463,-0.0851,-0.7415,0.5878
74521,-0.0931,-0.7256,0.6478
74542,-0.0958,-0.7209,0.6676
74559,-0.0986,-0.7158,0.6896
74582,-0.1047,-0.7039,0.7405
74604,-0.1075,-0.6971,0.7687
74622,-0.1099,-0.6897,0.7975
74655,-0.1119,-0.6733,0.8528
74671,-0.1110,-0.6647,0.8762
74713,-0.1030,-0.6403,0.9119
74734,-0.0844,-0.6340,0.9077
74756,-0.0699,-0.6295,0.8937
74778,-0.0520,-0.6271,0.8690
74804,-0.0050,-0.6300,0.7870
74825,0.0237,-0.6364,0.7299
74848,0.0895,-0.6602,0.5863
74888,0.1625,-0.6991,0.4127
74909,0.2001,-0.7234,0.3191
74926,0.2373,-0.7502,0.2236
74963,0.3402,-0.8368,-0.0525
74982,0.3691,-0.8650,-0.1345
74998,0.3944,-0.8914,-0.2084
75019,0.4156,-0.9154,-0.2725
75040,0.4326,-0.9365,-0.3254
75062,0.4525,-0.9679,-0.3931
75078,0.4552,-0.9774,-0.4064
75100,0.4531,-0.9829,-0.4055
75147,0.4189,-0.9740,-0.3202
75168,0.3990,-0.9633,-0.2662
75186,0.3754,-0.9490,-0.2010
75208,0.3184,-0.9106,-0.0410
75230,0.2858,-0.8868,0.0513
75267,0.2151,-0.8318,0.2542
75318,0.1036,-0.7360,0.5818
75343,0.0328,-0.6699,0.7957
75364,0.0004,-0.6382,0.8958
75386,-0.0292,-0.6080,0.9888
75409,-0.0778,-0.5544,1.1462
75430,-0.0961,-0.5320,1.2074
75452,-0.1099,-0.5129,1.2550
75513,-0.1176,-0.4783,1.2937
75534,-0.1069,-0.4810,1.2642
75569,-0.0702,-0.5005,1.1613
75606,0.0211,-0.5643,0.9139
75623,0.0596,-0.5940,0.8125
75644,0.1010,-0.6270,0.7045
75666,0.1445,-0.6628,0.5918
75687,0.2347,-0.7402,0.3612
75708,0.2794,-0.7799,0.2476
75730,0.3228,-0.8193,0.1379
75762,0.4017,-0.8933,-0.0616
75784,0.4651,-0.9562,-0.2231
75802,0.4895,-0.9816,-0.2860
75823,0.5083,-1.0024,-0.3353
75875,0.5294,-1.0343,-0.3954
75894,0.5244,-1.0343,-0.3849
75913,0.5137,-1.0292,-0.3593
75938,0.4760,-1.0040,-0.2642
75968,0.4187,-0.9613,-0.1177
75989,0.3838,-0.9342,-0.0291
76012,0.3455,-0.9042,0.0674
76032,0.2610,-0.8373,0.2749
76051,0.2164,-0.8018,0.3820
76074,0.1711,-0.7659,0.4888
76097,0.0822,-0.6952,0.6948
76118,0.0399,-0.6619,0.7913
76157,-0.0366,-0.6017,0.9645
76190,-0.0986,-0.5535,1.1042
76209,-0.1228,-0.5348,1.1591
76232,-0.1554,-0.5093,1.2343
76254,-0.1632,-0.5026,1.2532
76278,-0.1611,-0.5015,1.2511
76301,-0.1514,-0.5068,1.2296
76367,-0.0612,-0.5670,1.0140
76385,-0.0282,-0.5908,0.9316
76407,0.0076,-0.6177,0.8403
76428,0.0847,-0.6788,0.6377
76445,0.1245,-0.7123,0.5302
76497,0.2388,-0.8162,0.2070
76543,0.3312,-0.9121,-0.0774
76566,0.3547,-0.9395,-0.1561
76588,0.3741,-0.9637,-0.2249
76611,0.4001,-1.0017,-0.3291
76629,0.4066,-1.0148,-0.3633
76650,0.4089,-1.0237,-0.3853
76673,0.4017,-1.0284,-0.3914
76690,0.3928,-1.0240,-0.3757
76708,0.3806,-1.0153,-0.3481
76727,0.3656,-1.0023,-0.3088
76777,0.3058,-0.9415,-0.1293
76820,0.2577,-0.8566,0.1207
76838,0.2068,-0.8289,0.2141
76859,0.1816,-0.7987,0.3107
76881,0.1572,-0.7688,0.4089
76898,0.1338,-0.7394,0.5077
76916,0.1118,-0.7112,0.6058
76937,0.0732,-0.6589,0.7947
76984,0.0431,-0.6144,1.0399
76999,0.0316,-0.5953,1.0399
77022,0.0166,-0.5647,1.1626
77042,0.0131,-0.5532,1.2080
77062,0.0123,-0.5443,1.2412
77104,0.0266,-0.5343,1.2617
77121,0.0369,-0.5365,1.2408
77156,0.0657,-0.5498,1.1578
77174,0.0839,-0.5612,1.0968
77195,0.1044,-0.5758,1.0238
77218,0.1515,-0.6146,0.8472
77236,0.1772,-0.6383,0.7467
77257,0.2040,-0.6647,0.6405
77279,0.2311,-0.6931,0.5308
77299,0.2847,-0.7548,0.3086
77321,0.3101,-0.7869,0.2006
77342,0.3340,-0.8190,0.0973
77390,0.3925,-0.9080,-0.1661
77431,0.4243,-0.9733,-0.3328
77448,0.4283,-0.9875,-0.3628
77469,0.4288,-0.9974,-0.3794
77491,0.4259,-1.0029,-0.3827
77508,0.4194,-1.0037,-0.3727
77525,0.4098,-0.9999,-0.3499
77548,0.3811,-0.9791,-0.2671
77599,0.3198,-0.9197,-0.0607
77618,0.2958,-0.8940,0.0264
77635,0.2704,-0.8662,0.1205
77655,0.2443,-0.8368,0.2202
77678,0.1903,-0.7747,0.4308
77696,0.1633,-0.7430,0.5381
77732,0.1112,-0.6819,0.7479
77748,0.0868,-0.6532,0.8468
77780,0.0435,-0.6017,1.0237
77801,0.0253,-0.5796,1.0984
77818,0.0098,-0.5602,1.1619
77841,-0.0125,-0.5308,1.2499
77863,-0.0188,-0.5214,1.2726
77881,-0.0219,-0.5155,1.2804
77902,-0.0215,-0.5134,1.2733
77926,-0.0100,-0.5208,1.2151
77956,0.0159,-0.5432,1.1031
77990,0.0552,-0.5803,0.9460
78034,0.1057,-0.6310,0.7546
78056,0.1642,-0.6924,0.5426
78075,0.1952,-0.7258,0.4333
78095,0.2266,-0.7601,0.3245
78117,0.2577,-0.7947,0.2179
78139,0.3168,-0.8616,0.0186
78160,0.3435,-0.8923,-0.0709
78194,0.3889,-0.9456,-0.2219
78215,0.4065,-0.9669,-0.2810
78232,0.4204,-0.9840,-0.3279
78255,0.4358,-1.0042,-0.3827
78277,0.4370,-1.0066,-0.3900
78295,0.4341,-1.0039,-0.3838
78339,0.4033,-0.9667,-0.2854
78364,0.3873,-0.9462,-0.2273
78381,0.3694,-0.9227,-0.1575
78405,0.3296,-0.8698,0.0132
78458,0.2661,-0.7855,0.3260
78479,0.2452,-0.7584,0.4386
78496,0.2250,-0.7325,0.5520
78518,0.1869,-0.6853,0.7729
78540,0.1694,-0.6642,0.8762
78557,0.1533,-0.6448,0.9719
78575,0.1385,-0.6272,1.0581
78596,0.1252,-0.6113,1.1331
78673,0.0857,-0.5627,1.2931
78689,0.0844,-0.5604,1.2777
78711,0.0858,-0.5609,1.2467
78739,0.0977,-0.5719,1.1410
78784,0.1382,-0.6147,0.8911
78800,0.1576,-0.6359,0.7900
78832,0.2037,-0.6871,0.5734
78853,0.2296,-0.7164,0.4617
78871,0.2566,-0.7476,0.3507
78892,0.2842,-0.7797,0.2424
78945,0.3881,-0.9050,-0.1273
78967,0.4097,-0.9316,-0.1963
78988,0.4285,-0.9551,-0.2535
79011,0.4558,-0.9899,-0.3293
79042,0.4673,-1.0052,-0.3501
79062,0.4666,-1.0049,-0.3391
79084,0.4613,-0.9990,-0.3141
79104,0.4515,-0.9875,-0.2754
79125,0.4191,-0.9495,-0.1589
79150,0.3970,-0.9240,-0.0828
79171,0.3717,-0.8954,0.0039
79194,0.3136,-0.8323,0.2031
79235,0.2493,-0.7668,0.4240
79268,0.1832,-0.7050,0.6488
79284,0.1511,-0.6766,0.7570
79304,0.1205,-0.6504,0.8594
79325,0.0660,-0.6055,1.0389
79342,0.0433,-0.5870,1.1124
79363,0.0244,-0.5715,1.1731
79385,0.0094,-0.5591,1.2196
79407,-0.0076,-0.5442,1.2665
79424,-0.0095,-0.5421,1.2659
79446,-0.0068,-0.5438,1.2495
79515,0.0477,-0.5886,1.0381
79530,0.0713,-0.6086,0.9547
79572,0.1591,-0.6848,0.6575
79595,0.1920,-0.7139,0.5491
79621,0.2594,-0.7742,0.3306
79642,0.2924,-0.8043,0.2245
79693,0.3818,-0.8888,-0.0596
79714,0.4067,-0.9132,-0.1378
79731,0.4283,-0.9351,-0.2058
79754,0.4606,-0.9696,-0.3082
79776,0.4706,-0.9818,-0.3413
79793,0.4763,-0.9902,-0.3621
79816,0.4746,-0.9950,-0.3657
79833,0.4673,-0.9911,-0.3489
79900,0.4001,-0.9341,-0.1636
79917,0.3757,-0.9110,-0.0909
79939,0.3491,-0.8855,-0.0098
79958,0.3206,-0.8584,0.0786
79982,0.2595,-0.8015,0.2711
80001,0.2281,-0.7733,0.3722
80020,0.1968,-0.7460,0.4742
80068,0.1088,-0.6744,0.7706
80089,0.0829,-0.6550,0.8608
80110,0.0593,-0.6381,0.9443
80133,0.0208,-0.6115,1.0851
80181,-0.0142,-0.5902,1.2128
80198,-0.0194,-0.5881,1.2294
80219,-0.0215,-0.5885,1.2322
80237,-0.0200,-0.5913,1.2211
80276,-0.0073,-0.6044,1.1582
80306,0.0181,-0.6273,1.0448
80328,0.0549,-0.6602,0.8881
80349,0.0770,-0.6799,0.7965
80370,0.1011,-0.7017,0.6982
80393,0.1538,-0.7496,0.4883
80413,0.1815,-0.7753,0.3804
80439,0.2095,-0.8015,0.2729
80487,0.2892,-0.8789,-0.0273
80529,0.3529,-0.9441,-0.2609
80548,0.3690,-0.9609,-0.3176
80570,0.3820,-0.9746,-0.3624
80593,0.3977,-0.9916,-0.4133
80611,0.4001,-0.9944,-0.4186
80631,0.3986,-0.9932,-0.4103
80653,0.3929,-0.9878,-0.3881
80704,0.3521,-0.9462,-0.2401
80727,0.3069,-0.8998,-0.0781
80755,0.2502,-0.8428,0.1250
80777,0.2189,-0.8121,0.2377
80836,0.1185,-0.7195,0.7100
80853,0.0535,-0.6630,0.8210
80885,0.0234,-0.6377,0.9244
80907,-0.0280,-0.5951,1.0992
80925,-0.0486,-0.5782,1.1666
80948,-0.0651,-0.5647,1.2185
80967,-0.0774,-0.5548,1.2537
80991,-0.0878,-0.5465,1.2716
81010,-0.0858,-0.5483,1.2540
81055,-0.0507,-0.5793,1.1018
81089,-0.0051,-0.6200,0.9303
81128,0.0542,-0.6738,0.7191
81144,0.0873,-0.7042,0.6039
81167,0.1569,-0.7689,0.3652
81189,0.1918,-0.8018,0.2462
81206,0.2258,-0.8341,0.1304
81228,0.2583,-0.8650,0.0194
81251,0.3162,-0.9207,-0.1802
81271,0.3405,-0.9443,-0.2657
81292,0.3611,-0.9647,-0.3398
81315,0.3901,-0.9940,-0.4496
81347,0.4021,-1.0061,-0.5016
81369,0.4016,-1.0050,-0.5044
81387,0.3970,-0.9991,-0.4915
81435,0.3604,-0.9532,-0.3590
81452,0.3417,-0.9302,-0.2856
81477,0.3206,-0.9043,-0.1995
81499,0.2728,-0.8475,0.0050
81554,0.1947,-0.7622,0.3613
81582,0.1433,-0.7124,0.6045
81603,0.1191,-0.6908,0.7207
81625,0.0966,-0.6716,0.8306
81644,0.0574,-0.6406,1.0228
81665,0.0415,-0.6287,1.1019
81683,0.0286,-0.6189,1.1676
81741,0.0100,-0.6018,1.2734
81777,0.0250,-0.6053,1.2317
81793,0.0377,-0.6119,1.1854
81815,0.0540,-0.6215,1.1241
81837,0.0737,-0.6340,1.0490
81877,0.1504,-0.6884,0.7550
81893,0.1802,-0.7113,0.6404
81932,0.2426,-0.7627,0.3994
81951,0.2738,-0.7903,0.2777
81975,0.3335,-0.8463,0.0441
81994,0.3606,-0.8735,-0.0635
82013,0.3853,-0.8995,-0.1622
82032,0.4069,-0.9237,-0.2505
82074,0.4493,-0.9803,-0.4386
82091,0.4551,-0.9926,-0.4729
82140,0.4458,-1.0044,-0.4841
82161,0.4340,-0.9993,-0.4578
82178,0.4181,-0.9894,-0.4171
82200,0.3984,-0.9751,-0.3633
82223,0.3491,-0.9347,-0.2209
82246,0.3204,-0.9098,-0.1354
82265,0.2897,-0.8827,-0.0428
82285,0.2245,-0.8257,0.1560
82318,0.1577,-0.7699,0.3591
82339,0.1251,-0.7440,0.4573
82384,0.0355,-0.6803,0.7164
82406,0.0095,-0.6646,0.7863
82424,-0.0140,-0.6519,0.8461
82445,-0.0352,-0.6422,0.8953
82468,-0.0693,-0.6320,0.9612
82486,-0.0824,-0.6312,0.9781
82503,-0.0929,-0.6331,0.9850
82525,-0.1007,-0.6373,0.9827
82588,-0.1094,-0.6730,0.8995
82641,-0.0973,-0.7106,0.7919
82683,-0.0760,-0.7487,0.6786
82704,-0.0681,-0.7604,0.6438
82723,-0.0601,-0.7712,0.6116
82746,-0.0444,-0.7898,0.5568
82802,-0.0244,-0.8087,0.5016
82825,-0.0190,-0.8125,0.4907
82847,-0.0106,-0.8168,0.4792
82869,-0.0076,-0.8171,0.4781
82894,-0.0038,-0.8154,0.4835
82912,-0.0031,-0.8134,0.4893
82933,-0.0029,-0.8107,0.4966
82970,-0.0044,-0.8040,0.5140
83014,-0.0096,-0.7922,0.5430
83031,-0.0118,-0.7883,0.5522
83050,-0.0142,-0.7845,0.5609
83070,-0.0165,-0.7811,0.5690
83093,-0.0210,-0.7751,0.5826
83117,-0.0231,-0.7727,0.5881
83138,-0.0250,-0.7706,0.5927
83170,-0.0280,-0.7678,0.5989
83192,-0.0298,-0.7667,0.6018
83210,-0.0303,-0.7666,0.6022
83231,-0.0306,-0.7666,0.6019
83253,-0.0308,-0.7666,0.6014
83270,-0.0308,-0.7666,0.6010
83298,-0.0309,-0.7657,0.6008
83323,-0.0319,-0.7631,0.6039
83355,-0.0331,-0.7576,0.6118
83377,-0.0374,-0.7537,0.6177
83395,-0.0406,-0.7488,0.6246
83416,-0.0448,-0.7430,0.6322
83439,-0.0547,-0.7302,0.6471
83457,-0.0599,-0.7235,0.6536
83478,-0.0652,-0.7172,0.6587
83500,-0.0699,-0.7113,0.6621
83517,-0.0739,-0.7064,0.6635
83536,-0.0780,-0.7002,0.6592
83558,-0.0779,-0.6992,0.6534
83657,-0.0430,-0.7247,0.5840
83676,-0.0326,-0.7334,0.5701
83698,-0.0215,-0.7428,0.5565
83721,0.0018,-0.7625,0.5325
83768,0.0349,-0.7892,0.5081
83792,0.0446,-0.7963,0.5040
83813,0.0533,-0.8022,0.5021
83836,0.0682,-0.8110,0.5048
83853,0.0745,-0.8137,0.5092
83875,0.0798,-0.8153,0.5155
83902,0.0884,-0.8152,0.5328
83918,0.0916,-0.8136,0.5436
83936,0.0939,-0.8108,0.5554
83958,0.0953,-0.8071,0.5680
84003,0.0948,-0.7911,0.6079
84023,0.0931,-0.7845,0.6210
84045,0.0907,-0.7775,0.6333
84068,0.0844,-0.7626,0.6555
84090,0.0806,-0.7550,0.6648
84115,0.0721,-0.7402,0.6797
84139,0.0676,-0.7332,0.6852
84160,0.0631,-0.7266,0.6892
84192,0.0540,-0.7148,0.6935
84240,0.0415,-0.7025,0.6909
84256,0.0380,-0.7000,0.6881
84279,0.0320,-0.6967,0.6805
84301,0.0295,-0.6959,0.6761
84318,0.0275,-0.6957,0.6716
84344,0.0243,-0.6964,0.6624
84365,0.0233,-0.6971,0.6580
84398,0.0223,-0.6993,0.6500
84419,0.0222,-0.7006,0.6466
84436,0.0225,-0.7018,0.6437
84459,0.0234,-0.7043,0.6395
84481,0.0240,-0.7054,0.6383
84499,0.0248,-0.7064,0.6377
84535,0.0261,-0.7081,0.6383
84552,0.0267,-0.7089,0.6394
84600,0.0275,-0.7100,0.6451
84625,0.0271,-0.7100,0.6499
84646,0.0267,-0.7097,0.6522
84668,0.0262,-0.7095,0.6545
84685,0.0256,-0.7090,0.6569
84709,0.0243,-0.7078,0.6609
84730,0.0236,-0.7070,0.6626
84788,0.0208,-0.7041,0.6672
84814,0.0201,-0.7034,0.6680
84855,0.0184,-0.7015,0.6694
84876,0.0179,-0.7010,0.6697
84893,0.0176,-0.7006,0.6699
84915,0.0172,-0.7002,0.6702
84938,0.0166,-0.6996,0.6704
84957,0.0165,-0.6995,0.6705
84977,0.0162,-0.6993,0.6707
84998,0.0161,-0.6992,0.6707
85037,0.0161,-0.6995,0.6705
85058,0.0162,-0.6996,0.6704
85082,0.0164,-0.6997,0.6703
85105,0.0167,-0.7000,0.6702
85155,0.0172,-0.6998,0.6702
85189,0.0176,-0.6996,0.6703
85210,0.0178,-0.6993,0.6703
85227,0.0179,-0.6991,0.6703
85250,0.0183,-0.6985,0.6704
85272,0.0184,-0.6981,0.6704
85296,0.0186,-0.6978,0.6703
85319,0.0188,-0.6973,0.6703
85341,0.0189,-0.6970,0.6702
85358,0.0190,-0.6969,0.6700
85375,0.0192,-0.6968,0.6699
85398,0.0195,-0.6969,0.6694
85437,0.0198,-0.6973,0.6691
85470,0.0200,-0.6980,0.6686
85486,0.0201,-0.6984,0.6683
85508,0.0203,-0.6989,0.6681
85531,0.0204,-0.7000,0.6676
85548,0.0205,-0.7004,0.6674
85573,0.0206,-0.7009,0.6672
85595,0.0208,-0.7019,0.6670
85643,0.0208,-0.7026,0.6669
85668,0.0209,-0.7034,0.6669
85689,0.0209,-0.7036,0.6670
85712,0.0209,-0.7039,0.6674
85730,0.0209,-0.7040,0.6676
85772,0.0208,-0.7039,0.6682
85828,0.0206,-0.7032,0.6693
85851,0.0205,-0.7029,0.6696
85874,0.0203,-0.7023,0.6699
85896,0.0201,-0.7020,0.6702
85913,0.0200,-0.7017,0.6703
85935,0.0199,-0.7013,0.6705
85959,0.0197,-0.7008,0.6708
85984,0.0194,-0.7006,0.6710
86004,0.0193,-0.7003,0.6710
86025,0.0189,-0.7002,0.6711
86064,0.0187,-0.7001,0.6711
86097,0.0184,-0.7001,0.6711
86113,0.0183,-0.7001,0.6711
86135,0.0182,-0.7000,0.6711
86156,0.0179,-0.6997,0.6714
86172,0.0178,-0.6995,0.6715
86190,0.0178,-0.6992,0.6716
86211,0.0177,-0.6990,0.6718
86258,0.0176,-0.6980,0.6725
86279,0.0175,-0.6978,0.6726
86297,0.0175,-0.6975,0.6727
86319,0.0173,-0.6971,0.6730
86341,0.0173,-0.6971,0.6731
86359,0.0173,-0.6971,0.6732
86398,0.0172,-0.6973,0.6732
86414,0.0172,-0.6974,0.6732
86446,0.0171,-0.6979,0.6731
86468,0.0171,-0.6985,0.6731
86486,0.0170,-0.6989,0.6730
86507,0.0170,-0.6992,0.6730
86529,0.0170,-0.6996,0.6729
86547,0.0168,-0.7000,0.6727
86569,0.0167,-0.7007,0.6725
86591,0.0167,-0.7010,0.6725
86650,0.0166,-0.7021,0.6726
86674,0.0166,-0.7024,0.6727
86717,0.0165,-0.7029,0.6731
86740,0.0165,-0.7030,0.6733
86762,0.0165,-0.7030,0.6735
86785,0.0165,-0.7030,0.6738
86803,0.0165,-0.7029,0.6741
86831,0.0165,-0.7025,0.6743
86853,0.0165,-0.7023,0.6744
86901,0.0165,-0.7017,0.6744
86927,0.0165,-0.7015,0.6744
86949,0.0165,-0.7012,0.6742
86968,0.0165,-0.7010,0.6741
87000,0.0165,-0.7009,0.6738
87020,0.0165,-0.7008,0.6737
87041,0.0165,-0.7007,0.6736
87064,0.0164,-0.7006,0.6735
87096,0.0162,-0.7001,0.6735
87117,0.0162,-0.6998,0.6735
87142,0.0161,-0.6991,0.6735
87163,0.0160,-0.6986,0.6736
87184,0.0160,-0.6981,0.6736
87201,0.0159,-0.6976,0.6737
87227,0.0157,-0.6967,0.6740
87248,0.0157,-0.6962,0.6741
87298,0.0156,-0.6953,0.6744
87343,0.0155,-0.6951,0.6747
87360,0.0155,-0.6952,0.6748
87381,0.0155,-0.6953,0.6749
87403,0.0155,-0.6956,0.6749
87420,0.0155,-0.6957,0.6749
87437,0.0155,-0.6959,0.6749
87460,0.0156,-0.6965,0.6747
87499,0.0159,-0.6971,0.6744
87521,0.0160,-0.6979,0.6741
87539,0.0161,-0.6981,0.6740
87560,0.0162,-0.6985,0.6737
87582,0.0164,-0.6989,0.6737
87600,0.0165,-0.6991,0.6736
87636,0.0168,-0.7000,0.6733
87654,0.0170,-0.7002,0.6732
87702,0.0172,-0.7008,0.6731
87727,0.0172,-0.7010,0.6730
87748,0.0172,-0.7010,0.6730
87771,0.0172,-0.7012,0.6731
87789,0.0172,-0.7010,0.6732
87810,0.0171,-0.7009,0.6733
87832,0.0171,-0.7008,0.6735
87887,0.0166,-0.7000,0.6746
87937,0.0162,-0.6995,0.6754
87957,0.0161,-0.6992,0.6757
87980,0.0160,-0.6991,0.6759
88001,0.0157,-0.6989,0.6764
88021,0.0156,-0.6987,0.6765
88041,0.0156,-0.6986,0.6766
88058,0.0155,-0.6985,0.6768
88079,0.0155,-0.6984,0.6768
88126,0.0154,-0.6979,0.6768
88148,0.0154,-0.6974,0.6768
88171,0.0154,-0.6971,0.6766
88192,0.0154,-0.6969,0.6766
88240,0.0154,-0.6963,0.6768
88259,0.0154,-0.6960,0.6769
88281,0.0154,-0.6958,0.6771
88303,0.0154,-0.6958,0.6771
88335,0.0155,-0.6958,0.6771
88355,0.0155,-0.6958,0.6770
88381,0.0156,-0.6962,0.6768
88402,0.0156,-0.6964,0.6768
88424,0.0157,-0.6967,0.6768
88441,0.0157,-0.6969,0.6768
88467,0.0159,-0.6975,0.6768
88488,0.0160,-0.6978,0.6769
88528,0.0160,-0.6987,0.6770
88564,0.0161,-0.6995,0.6772
88580,0.0161,-0.6998,0.6774
88602,0.0160,-0.7001,0.6774
88625,0.0160,-0.7006,0.6776
88642,0.0160,-0.7008,0.6777
88664,0.0159,-0.7009,0.6779
88681,0.0159,-0.7010,0.6779
88737,0.0157,-0.7013,0.6781
88762,0.0156,-0.7014,0.6781
88783,0.0156,-0.7013,0.6781
88806,0.0155,-0.7012,0.6782
88823,0.0154,-0.7010,0.6782
88843,0.0153,-0.7009,0.6783
88879,0.0151,-0.7007,0.6785
88929,0.0149,-0.7002,0.6786
88955,0.0148,-0.7000,0.6787
88974,0.0146,-0.6998,0.6787
88994,0.0146,-0.6997,0.6788
89016,0.0145,-0.6995,0.6790
89038,0.0144,-0.6991,0.6792
89060,0.0143,-0.6990,0.6794
89081,0.0142,-0.6987,0.6796
89097,0.0142,-0.6985,0.6797
89120,0.0139,-0.6979,0.6799
89167,0.0137,-0.6969,0.6801
89210,0.0135,-0.6962,0.6801
89226,0.0135,-0.6959,0.6801
89249,0.0135,-0.6954,0.6801
89271,0.0134,-0.6952,0.6801
89289,0.0134,-0.6951,0.6801
89305,0.0134,-0.6951,0.6801
89327,0.0134,-0.6949,0.6801
89367,0.0134,-0.6952,0.6798
89388,0.0134,-0.6954,0.6798
89412,0.0134,-0.6957,0.6797
89435,0.0135,-0.6964,0.6794
89457,0.0135,-0.6968,0.6793
89494,0.0135,-0.6976,0.6793
89510,0.0135,-0.6981,0.6793
89557,0.0134,-0.6993,0.6796
89579,0.0135,-0.7001,0.6798
89597,0.0135,-0.7004,0.6799
89618,0.0135,-0.7008,0.6799
89640,0.0135,-0.7010,0.6801
89657,0.0135,-0.7013,0.6801
89680,0.0135,-0.7018,0.6801
89704,0.0137,-0.7019,0.6801
89760,0.0137,-0.7024,0.6802
89819,0.0137,-0.7025,0.6801
89840,0.0137,-0.7025,0.6801
89857,0.0137,-0.7024,0.6801
89880,0.0138,-0.7020,0.6798
89905,0.0138,-0.7018,0.6798
89947,0.0139,-0.7010,0.6793
89967,0.0140,-0.7008,0.6791
89990,0.0142,-0.7002,0.6787
90010,0.0142,-0.7001,0.6786
90031,0.0143,-0.6998,0.6785
90048,0.0143,-0.6996,0.6785
90070,0.0144,-0.6993,0.6783
90105,0.0145,-0.6990,0.6783
90139,0.0146,-0.6982,0.6783
90161,0.0146,-0.6979,0.6783
90180,0.0146,-0.6976,0.6783
90201,0.0146,-0.6974,0.6783
90223,0.0146,-0.6968,0.6783
90241,0.0146,-0.6965,0.6783
90262,0.0146,-0.6963,0.6783
90284,0.0146,-0.6962,0.6783
90301,0.0146,-0.6960,0.6785
90319,0.0146,-0.6960,0.6785
90341,0.0148,-0.6960,0.6787
90388,0.0148,-0.6964,0.6790
90434,0.0148,-0.6970,0.6792
90451,0.0149,-0.6976,0.6793
90473,0.0149,-0.6980,0.6793
90495,0.0150,-0.6984,0.6793
90512,0.0150,-0.6987,0.6793
90529,0.0150,-0.6990,0.6794
90552,0.0150,-0.6995,0.6797
90591,0.0150,-0.6998,0.6802
90612,0.0150,-0.7000,0.6804
90638,0.0149,-0.7002,0.6812
90659,0.0148,-0.7002,0.6814
90682,0.0146,-0.7003,0.6819
90724,0.0145,-0.7004,0.6823
90741,0.0144,-0.7004,0.6824
90805,0.0143,-0.7006,0.6823
90828,0.0143,-0.7007,0.6823
90856,0.0142,-0.7006,0.6824
90871,0.0142,-0.7006,0.6825
90902,0.0140,-0.7003,0.6829
90923,0.0140,-0.7003,0.6831
90941,0.0139,-0.7002,0.6832
90998,0.0137,-0.7000,0.6840
91034,0.0135,-0.6998,0.6843
91051,0.0135,-0.6998,0.6844
91072,0.0134,-0.6997,0.6846
91095,0.0133,-0.6995,0.6849
91113,0.0132,-0.6992,0.6851
91137,0.0132,-0.6990,0.6852
91159,0.0129,-0.6982,0.6857
91192,0.0128,-0.6974,0.6860
91214,0.0128,-0.6970,0.6862
91237,0.0127,-0.6967,0.6863
91259,0.0127,-0.6959,0.6864
91281,0.0126,-0.6957,0.6864
91302,0.0126,-0.6954,0.6863
91335,0.0126,-0.6953,0.6860
91351,0.0127,-0.6953,0.6858
91383,0.0127,-0.6956,0.6852
91404,0.0127,-0.6958,0.6848
91430,0.0128,-0.6964,0.6841
91451,0.0128,-0.6968,0.6837
91474,0.0129,-0.6976,0.6831
91491,0.0129,-0.6980,0.6830
91513,0.0128,-0.6984,0.6829
91535,0.0128,-0.6989,0.6830
91577,0.0127,-0.7000,0.6833
91598,0.0127,-0.7004,0.6835
91645,0.0126,-0.7014,0.6841
91666,0.0126,-0.7017,0.6843
91683,0.0125,-0.7019,0.6844
91706,0.0125,-0.7024,0.6848
91728,0.0125,-0.7025,0.6849
91747,0.0125,-0.7026,0.6852
91769,0.0125,-0.7026,0.6853
91791,0.0125,-0.7026,0.6854
91840,0.0125,-0.7025,0.6855
91863,0.0125,-0.7024,0.6854
91886,0.0125,-0.7021,0.6853
91908,0.0126,-0.7020,0.6853
91947,0.0126,-0.7018,0.6851
91992,0.0127,-0.7014,0.6847
92012,0.0127,-0.7013,0.6846
92036,0.0127,-0.7010,0.6844
92057,0.0127,-0.7009,0.6844
92079,0.0127,-0.7007,0.6843
92096,0.0127,-0.7004,0.6843
92119,0.0128,-0.6997,0.6843
92141,0.0128,-0.6993,0.6842
92161,0.0128,-0.6989,0.6842
92183,0.0127,-0.6979,0.6841
92205,0.0127,-0.6974,0.6840
92237,0.0127,-0.6965,0.6840
92273,0.0127,-0.6958,0.6841
92289,0.0126,-0.6956,0.6842
92312,0.0126,-0.6953,0.6843
92334,0.0126,-0.6953,0.6844
92354,0.0126,-0.6953,0.6846
92371,0.0126,-0.6954,0.6846
92394,0.0126,-0.6958,0.6846
92444,0.0127,-0.6968,0.6846
92464,0.0127,-0.6973,0.6844
92482,0.0128,-0.6976,0.6844
92503,0.0128,-0.6981,0.6843
92526,0.0129,-0.6990,0.6841
92544,0.0129,-0.6993,0.6841
92578,0.0129,-0.7000,0.6840
92619,0.0128,-0.7002,0.6841
92641,0.0127,-0.6997,0.6841
92659,0.0127,-0.6991,0.6841
92680,0.0126,-0.6985,0.6840
92702,0.0126,-0.6978,0.6837
92719,0.0126,-0.6971,0.6833
92742,0.0131,-0.6964,0.6820
92764,0.0137,-0.6964,0.6810
92792,0.0153,-0.6970,0.6790
92813,0.0164,-0.6978,0.6779
92835,0.0175,-0.6986,0.6769
92895,0.0225,-0.7029,0.6733
92938,0.0258,-0.7058,0.6715
92960,0.0266,-0.7067,0.6710
92979,0.0273,-0.7073,0.6705
92996,0.0281,-0.7078,0.6700
93047,0.0292,-0.7084,0.6692
93069,0.0292,-0.7078,0.6692
93087,0.0289,-0.7073,0.6696
93108,0.0287,-0.7067,0.6699
93130,0.0282,-0.7058,0.6705
93147,0.0278,-0.7050,0.6711
93170,0.0269,-0.7030,0.6724
93192,0.0265,-0.7021,0.6729
93227,0.0258,-0.7006,0.6731
93260,0.0254,-0.6995,0.6721
93276,0.0254,-0.6992,0.6711
93296,0.0254,-0.6991,0.6698
93318,0.0255,-0.6991,0.6660
93336,0.0256,-0.6993,0.6638
93357,0.0259,-0.6996,0.6613
93379,0.0261,-0.7000,0.6586
93401,0.0265,-0.7009,0.6531
93417,0.0267,-0.7014,0.6503
93439,0.0270,-0.7019,0.6476
93486,0.0276,-0.7035,0.6406
93506,0.0277,-0.7040,0.6389
93532,0.0280,-0.7048,0.6365
93568,0.0284,-0.7054,0.6361
93589,0.0287,-0.7057,0.6367
93606,0.0291,-0.7059,0.6378
93623,0.0295,-0.7062,0.6392
93646,0.0310,-0.7065,0.6428
93685,0.0326,-0.7068,0.6467
93706,0.0336,-0.7069,0.6487
93732,0.0352,-0.7069,0.6523
93753,0.0358,-0.7069,0.6541
93775,0.0364,-0.7069,0.6558
93794,0.0375,-0.7069,0.6587
93813,0.0380,-0.7070,0.6599
93831,0.0386,-0.7073,0.6609
93872,0.0397,-0.7080,0.6624
93920,0.0411,-0.7092,0.6628
93945,0.0417,-0.7100,0.6621
93965,0.0419,-0.7103,0.6613
93987,0.0420,-0.7106,0.6603
94010,0.0421,-0.7112,0.6575
94027,0.0421,-0.7114,0.6558
94048,0.0420,-0.7117,0.6538
94107,0.0411,-0.7130,0.6451
94128,0.0409,-0.7135,0.6429
94146,0.0406,-0.7140,0.6406
94181,0.0400,-0.7148,0.6362
94206,0.0394,-0.7156,0.6323
94230,0.0391,-0.7158,0.6307
94251,0.0387,-0.7159,0.6293
94291,0.0374,-0.7161,0.6261
94312,0.0370,-0.7158,0.6255
94335,0.0365,-0.7156,0.6250
94357,0.0358,-0.7148,0.6244
94379,0.0353,-0.7144,0.6244
94396,0.0350,-0.7137,0.6245
94419,0.0344,-0.7126,0.6252
94437,0.0342,-0.7120,0.6257
94510,0.0337,-0.7095,0.6287
94527,0.0336,-0.7090,0.6295
94548,0.0336,-0.7084,0.6302
94571,0.0336,-0.7073,0.6318
94589,0.0336,-0.7067,0.6324
94610,0.0336,-0.7062,0.6331
94633,0.0337,-0.7052,0.6342
94674,0.0337,-0.7045,0.6349
94695,0.0338,-0.7041,0.6353
94721,0.0338,-0.7036,0.6359
94742,0.0338,-0.7034,0.6360
94794,0.0339,-0.7030,0.6365
94810,0.0339,-0.7030,0.6365
94831,0.0339,-0.7030,0.6366
94850,0.0338,-0.7031,0.6366
94916,0.0337,-0.7035,0.6366
94939,0.0336,-0.7035,0.6366
94959,0.0336,-0.7036,0.6367
94980,0.0334,-0.7036,0.6367
95002,0.0333,-0.7035,0.6368
95023,0.0333,-0.7035,0.6368
95046,0.0332,-0.7031,0.6371
95100,0.0330,-0.7023,0.6376
95140,0.0327,-0.7014,0.6379
95156,0.0327,-0.7009,0.6382
95179,0.0325,-0.6998,0.6385
95201,0.0325,-0.6993,0.6388
95218,0.0323,-0.6989,0.6390
95240,0.0323,-0.6984,0.6392
95258,0.0322,-0.6979,0.6395
95297,0.0320,-0.6969,0.6403
95318,0.0319,-0.6968,0.6405
95342,0.0316,-0.6968,0.6410
95363,0.0316,-0.6969,0.6412
95385,0.0315,-0.6970,0.6415
95402,0.0314,-0.6973,0.6417
95438,0.0314,-0.6980,0.6422
95463,0.0312,-0.6989,0.6426
95497,0.0312,-0.6998,0.6428
95518,0.0312,-0.7002,0.6431
95536,0.0312,-0.7007,0.6432
95558,0.0312,-0.7014,0.6434
95580,0.0312,-0.7017,0.6437
95598,0.0312,-0.7019,0.6438
95619,0.0314,-0.7021,0.6440
95642,0.0314,-0.7024,0.6444
95660,0.0314,-0.7025,0.6447
95676,0.0314,-0.7026,0.6448
95698,0.0314,-0.7026,0.6450
95740,0.0314,-0.7028,0.6455
95772,0.0312,-0.7028,0.6458
95793,0.0312,-0.7028,0.6458
95818,0.0312,-0.7028,0.6460
95840,0.0312,-0.7028,0.6460
95860,0.0311,-0.7028,0.6460
95920,0.0311,-0.7025,0.6461
95945,0.0310,-0.7024,0.6462
95964,0.0310,-0.7024,0.6462
95985,0.0310,-0.7021,0.6462
96008,0.0310,-0.7020,0.6462
96044,0.0310,-0.7018,0.6464
96069,0.0310,-0.7013,0.6465
96086,0.0310,-0.7010,0.6465
96108,0.0310,-0.7007,0.6466
96167,0.0310,-0.6990,0.6469
96188,0.0309,-0.6985,0.6470
96205,0.0309,-0.6980,0.6470
96227,0.0309,-0.6975,0.6471
96250,0.0308,-0.6967,0.6472
96268,0.0308,-0.6963,0.6472
96285,0.0308,-0.6960,0.6473
96306,0.0308,-0.6958,0.6473
96370,0.0308,-0.6960,0.6475
96387,0.0309,-0.6963,0.6476
96408,0.0309,-0.6965,0.6476
96431,0.0309,-0.6973,0.6476
96449,0.0310,-0.6976,0.6476
96470,0.0310,-0.6981,0.6476
96488,0.0310,-0.6985,0.6476
96537,0.0310,-0.6997,0.6478
96559,0.0311,-0.7006,0.6482
96577,0.0311,-0.7008,0.6483
96598,0.0311,-0.7012,0.6486
96620,0.0311,-0.7014,0.6488
96657,0.0312,-0.7019,0.6490
96674,0.0312,-0.7021,0.6492
96692,0.0312,-0.7021,0.6492
96713,0.0312,-0.7021,0.6492
96752,0.0312,-0.7020,0.6492
96774,0.0312,-0.7018,0.6492
96792,0.0314,-0.7017,0.6492
96813,0.0314,-0.7015,0.6492
96835,0.0314,-0.7014,0.6492
96852,0.0314,-0.7012,0.6490
96874,0.0315,-0.7009,0.6490
96900,0.0315,-0.7008,0.6489
96969,0.0316,-0.7006,0.6487
97011,0.0317,-0.7006,0.6487
97030,0.0317,-0.7006,0.6486
97046,0.0317,-0.7006,0.6486
97069,0.0317,-0.7004,0.6484
97091,0.0317,-0.7003,0.6484
97139,0.0317,-0.6998,0.6486
97162,0.0317,-0.6995,0.6486
97185,0.0317,-0.6989,0.6488
97207,0.0317,-0.6986,0.6489
97224,0.0317,-0.6982,0.6490
97246,0.0317,-0.6979,0.6493
97269,0.0317,-0.6974,0.6497
97312,0.0316,-0.6970,0.6501
97346,0.0316,-0.6970,0.6506
97368,0.0316,-0.6973,0.6509
97391,0.0316,-0.6974,0.6511
97412,0.0316,-0.6976,0.6512
97435,0.0317,-0.6981,0.6514
97453,0.0320,-0.6984,0.6515
97474,0.0322,-0.6986,0.6515
97497,0.0330,-0.6992,0.6511
97515,0.0336,-0.6996,0.6509
97532,0.0342,-0.7001,0.6505
97554,0.0350,-0.7008,0.6499
97615,0.0393,-0.7056,0.6458
97656,0.0420,-0.7091,0.6422
97678,0.0449,-0.7131,0.6381
97700,0.0463,-0.7153,0.6359
97725,0.0477,-0.7175,0.6335
97757,0.0504,-0.7219,0.6289
97779,0.0530,-0.7260,0.6245
97797,0.0542,-0.7278,0.6224
97818,0.0554,-0.7295,0.6206
97840,0.0565,-0.7312,0.6190
97857,0.0575,-0.7327,0.6177
97880,0.0593,-0.7354,0.6158
97903,0.0602,-0.7366,0.6154
97960,0.0620,-0.7394,0.6149
98021,0.0609,-0.7388,0.6149
98044,0.0592,-0.7369,0.6152
98065,0.0582,-0.7356,0.6157
98087,0.0573,-0.7341,0.6165
98113,0.0553,-0.7303,0.6188
98130,0.0542,-0.7283,0.6204
98151,0.0532,-0.7260,0.6221
98210,0.0493,-0.7167,0.6296
98258,0.0469,-0.7102,0.6349
98274,0.0463,-0.7083,0.6364
98296,0.0457,-0.7065,0.6377
98318,0.0450,-0.7050,0.6388
98339,0.0442,-0.7023,0.6404
98360,0.0438,-0.7013,0.6410
98382,0.0436,-0.7006,0.6414
98413,0.0432,-0.6995,0.6417
98434,0.0430,-0.6993,0.6417
98460,0.0428,-0.6993,0.6415
98481,0.0427,-0.6996,0.6414
98504,0.0428,-0.7002,0.6410
98522,0.0430,-0.7008,0.6407
98567,0.0435,-0.7025,0.6396
98606,0.0457,-0.7078,0.6389
98627,0.0470,-0.7104,0.6387
98648,0.0487,-0.7134,0.6387
98670,0.0527,-0.7194,0.6404
98692,0.0551,-0.7217,0.6422
98709,0.0573,-0.7231,0.6449
98732,0.0607,-0.7227,0.6533
98749,0.0619,-0.7201,0.6589
98795,0.0626,-0.7100,0.6729
98817,0.0612,-0.6923,0.6904
98835,0.0598,-0.6802,0.7008
98867,0.0564,-0.6494,0.7244
98888,0.0543,-0.6307,0.7375
98905,0.0520,-0.6104,0.7516
98931,0.0472,-0.5657,0.7816
98947,0.0450,-0.5424,0.7972
99013,0.0402,-0.4532,0.8582
99036,0.0396,-0.4336,0.8712
99057,0.0392,-0.4153,0.8827
99080,0.0391,-0.3822,0.8997
99098,0.0396,-0.3669,0.9050
99119,0.0405,-0.3519,0.9082
99170,0.0475,-0.3048,0.9066
99216,0.0637,-0.2466,0.8954
99239,0.0715,-0.2235,0.8915
99262,0.0909,-0.1721,0.8851
99284,0.1023,-0.1444,0.8833
99301,0.1147,-0.1161,0.8824
99323,0.1281,-0.0874,0.8827
99346,0.1567,-0.0314,0.8867
99363,0.1718,-0.0049,0.8904
99381,0.1868,0.0198,0.8954
99402,0.2015,0.0425,0.9021
99449,0.2404,0.0958,0.9329
99485,0.2594,0.1182,0.9603
99501,0.2662,0.1250,0.9751
99524,0.2737,0.1304,1.0045
99546,0.2742,0.1292,1.0184
99563,0.2725,0.1256,1.0312
99589,0.2633,0.1130,1.0525
99610,0.2561,0.1046,1.0605
99642,0.2377,0.0856,1.0709
99663,0.2269,0.0753,1.0732
99687,0.2037,0.0553,1.0724
99709,0.1919,0.0458,1.0695
99731,0.1802,0.0370,1.0651
99751,0.1688,0.0289,1.0594
99784,0.1481,0.0154,1.0454
99800,0.1390,0.0100,1.0374
99832,0.1239,0.0017,1.0204
99854,0.1134,-0.0033,1.0035
99872,0.1099,-0.0048,0.9956
99893,0.1073,-0.0057,0.9882
