timestamp,acc_x,acc_y,acc_z
2343116,0.3097,-0.9369,-0.0920
2343205,0.3040,-0.9355,-0.0972
2343215,0.3032,-0.9353,-0.0980
2343231,0.3019,-0.9349,-0.1003
2343247,0.3007,-0.9346,-0.1034
2343263,0.2997,-0.9341,-0.1075
2343281,0.2988,-0.9335,-0.1128
2343297,0.2982,-0.9330,-0.1191
2343313,0.2976,-0.9325,-0.1266
2343331,0.2970,-0.9320,-0.1348
2343367,0.2958,-0.9309,-0.1520
2343383,0.2950,-0.9307,-0.1599
2343399,0.2944,-0.9308,-0.1667
2343417,0.2936,-0.9316,-0.1743
2343453,0.2926,-0.9335,-0.1785
2343469,0.2922,-0.9343,-0.1782
2343479,0.2921,-0.9347,-0.1776
2343490,0.2920,-0.9352,-0.1755
2343506,0.2917,-0.9354,-0.1742
2343522,0.2914,-0.9355,-0.1713
2343533,0.2910,-0.9355,-0.1680
2343579,0.2896,-0.9349,-0.1615
2343595,0.2892,-0.9349,-0.1600
2343605,0.2891,-0.9349,-0.1593
2343621,0.2892,-0.9349,-0.1592
2343638,0.2896,-0.9349,-0.1594
2343653,0.2898,-0.9348,-0.1597
2343671,0.2903,-0.9344,-0.1604
2343685,0.2903,-0.9342,-0.1608
2343701,0.2900,-0.9338,-0.1613
2343717,0.2896,-0.9333,-0.1619
2343791,0.2859,-0.9327,-0.1647
2343810,0.2850,-0.9332,-0.1663
2343826,0.2845,-0.9336,-0.1675
2343837,0.2844,-0.9338,-0.1682
2343853,0.2843,-0.9342,-0.1697
2343863,0.2844,-0.9344,-0.1704
2343878,0.2848,-0.9349,-0.1719
2343894,0.2858,-0.9357,-0.1732
2343910,0.2874,-0.9369,-0.1744
2343927,0.2899,-0.9386,-0.1754
2343937,0.2914,-0.9396,-0.1759
2343953,0.2949,-0.9418,-0.1765
2343969,0.2987,-0.9437,-0.1768
2343985,0.3020,-0.9451,-0.1765
2344014,0.3065,-0.9451,-0.1741
2344029,0.3070,-0.9446,-0.1733
2344065,0.3063,-0.9397,-0.1716
2344075,0.3057,-0.9386,-0.1720
2344091,0.3043,-0.9366,-0.1737
2344102,0.3037,-0.9360,-0.1752
2344118,0.3025,-0.9360,-0.1792
2344136,0.3010,-0.9396,-0.1885
2344151,0.3003,-0.9415,-0.1924
2344167,0.2981,-0.9458,-0.2009
2344183,0.2942,-0.9498,-0.2098
2344219,0.2733,-0.9536,-0.2306
2344235,0.2605,-0.9514,-0.2372
2344251,0.2457,-0.9475,-0.2424
2344269,0.2292,-0.9423,-0.2462
2344285,0.2119,-0.9363,-0.2484
2344301,0.1942,-0.9301,-0.2491
2344317,0.1770,-0.9237,-0.2487
2344335,0.1610,-0.9174,-0.2472
2344368,0.1359,-0.9056,-0.2444
2344378,0.1313,-0.9028,-0.2446
2344389,0.1277,-0.8977,-0.2472
2344418,0.1216,-0.8903,-0.2590
2344434,0.1227,-0.8853,-0.2734
2344450,0.1249,-0.8796,-0.2933
2344460,0.1260,-0.8765,-0.3053
2344476,0.1273,-0.8685,-0.3326
2344492,0.1261,-0.8578,-0.3636
2344508,0.1212,-0.8434,-0.3969
2344526,0.1119,-0.8245,-0.4310
2344542,0.0979,-0.8005,-0.4653
2344558,0.0802,-0.7720,-0.4994
2344574,0.0605,-0.7396,-0.5332
2344585,0.0507,-0.6912,-0.5662
2344631,0.0090,-0.6201,-0.6393
2344677,0.0199,-0.5676,-0.6956
2344687,0.0275,-0.5677,-0.7013
2344698,0.0365,-0.5707,-0.7059
2344713,0.0576,-0.5850,-0.7125
2344729,0.0802,-0.6088,-0.7156
2344745,0.1014,-0.6394,-0.7162
2344755,0.1107,-0.6560,-0.7159
2344771,0.1254,-0.6896,-0.7156
2344789,0.1343,-0.7213,-0.7168
2344805,0.1372,-0.7491,-0.7213
2344842,0.1213,-0.7911,-0.7533
2344859,0.1083,-0.7952,-0.7732
2344867,0.1010,-0.7948,-0.7838
2344887,0.0854,-0.7902,-0.8053
2344903,0.0701,-0.7821,-0.8251
2344918,0.0560,-0.7723,-0.8413
2344933,0.0442,-0.7620,-0.8525
2344975,0.0271,-0.7371,-0.8552
2344993,0.0251,-0.7285,-0.8463
2345005,0.0256,-0.7211,-0.8329
2345034,0.0291,-0.7117,-0.8065
2345050,0.0320,-0.7057,-0.7871
2345066,0.0350,-0.6997,-0.7677
2345076,0.0375,-0.6936,-0.7495
2345091,0.0385,-0.6906,-0.7411
2345107,0.0398,-0.6848,-0.7262
2345123,0.0402,-0.6796,-0.7140
2345141,0.0392,-0.6729,-0.7014
2345157,0.0386,-0.6709,-0.6967
2345170,0.0366,-0.6674,-0.6953
2345186,0.0344,-0.6642,-0.6945
2345196,0.0332,-0.6628,-0.6948
2345225,0.0284,-0.6591,-0.6990
2345240,0.0267,-0.6595,-0.7004
2345280,0.0258,-0.6709,-0.6921
2345290,0.0262,-0.6748,-0.6880
2345306,0.0281,-0.6838,-0.6780
2345322,0.0305,-0.6936,-0.6664
2345333,0.0321,-0.6985,-0.6605
2345351,0.0352,-0.7074,-0.6489
2345367,0.0380,-0.7144,-0.6392
2345383,0.0400,-0.7183,-0.6326
2345401,0.0410,-0.7185,-0.6310
2345438,0.0398,-0.7019,-0.6560
2345454,0.0387,-0.6897,-0.6790
2345470,0.0377,-0.6755,-0.7081
2345480,0.0374,-0.6681,-0.7242
2345496,0.0364,-0.6532,-0.7578
2345512,0.0355,-0.6393,-0.7898
2345528,0.0349,-0.6277,-0.8168
2345546,0.0347,-0.6199,-0.8356
2345590,0.0394,-0.6227,-0.8256
2345646,0.0662,-0.6829,-0.7184
2345662,0.0779,-0.7086,-0.6677
2345678,0.0911,-0.7366,-0.6132
2345694,0.1056,-0.7659,-0.5573
2345710,0.1215,-0.7965,-0.5032
2345726,0.1385,-0.8285,-0.4537
2345736,0.1473,-0.8450,-0.4316
2345752,0.1655,-0.8788,-0.3936
2345768,0.1833,-0.9136,-0.3635
2345784,0.2000,-0.9486,-0.3406
2345803,0.2205,-0.9991,-0.3152
2345838,0.2360,-1.0527,-0.2920
2345855,0.2382,-1.0685,-0.2854
2345863,0.2380,-1.0724,-0.2843
2345896,0.2341,-1.0585,-0.3042
2345906,0.2325,-1.0471,-0.3175
2345921,0.2288,-1.0139,-0.3566
2345937,0.2235,-0.9658,-0.4127
2345953,0.2172,-0.9023,-0.4850
2345964,0.2136,-0.8654,-0.5265
2345977,0.2067,-0.7828,-0.6184
2345993,0.1997,-0.6936,-0.7191
2346009,0.1931,-0.6039,-0.8243
2346019,0.1901,-0.5607,-0.8771
2346056,0.1771,-0.3844,-1.1057
2346072,0.1748,-0.3601,-1.1382
2346088,0.1698,-0.3247,-1.1840
2346098,0.1646,-0.3068,-1.2029
2346114,0.1594,-0.3053,-1.1965
2346129,0.1571,-0.3102,-1.1853
2346145,0.1541,-0.3292,-1.1516
2346163,0.1544,-0.3744,-1.0886
2346209,0.1661,-0.4547,-1.0050
2346248,0.1737,-0.5017,-0.9698
2346263,0.1703,-0.5105,-0.9620
2346279,0.1628,-0.5162,-0.9540
2346292,0.1578,-0.5187,-0.9493
2346308,0.1461,-0.5243,-0.9382
2346324,0.1329,-0.5322,-0.9242
2346340,0.1194,-0.5437,-0.9066
2346350,0.1125,-0.5505,-0.8851
2346366,0.0994,-0.5664,-0.8730
2346382,0.0872,-0.5841,-0.8466
2346398,0.0763,-0.6028,-0.8181
2346416,0.0635,-0.6306,-0.7745
2346434,0.0571,-0.6477,-0.7463
2346450,0.0526,-0.6627,-0.7197
2346466,0.0493,-0.6757,-0.6953
2346527,0.0466,-0.7094,-0.6340
2346545,0.0485,-0.7173,-0.6259
2346561,0.0518,-0.7250,-0.6221
2346577,0.0564,-0.7328,-0.6216
2346588,0.0616,-0.7411,-0.6228
2346606,0.0667,-0.7498,-0.6240
2346622,0.0707,-0.7582,-0.6238
2346641,0.0735,-0.7662,-0.6218
2346657,0.0754,-0.7740,-0.6183
2346703,0.0757,-0.7957,-0.6027
2346716,0.0748,-0.7987,-0.5996
2346734,0.0723,-0.8042,-0.5902
2346750,0.0688,-0.8087,-0.5870
2346766,0.0653,-0.8124,-0.5808
2346782,0.0620,-0.8153,-0.5751
2346825,0.0581,-0.8224,-0.5676
2346835,0.0583,-0.8232,-0.5681
2346846,0.0590,-0.8240,-0.5691
2346862,0.0603,-0.8243,-0.5720
2346873,0.0612,-0.8240,-0.5739
2346888,0.0625,-0.8220,-0.5775
2346928,0.0635,-0.8094,-0.5864
2346943,0.0621,-0.8013,-0.5897
2346964,0.0583,-0.7863,-0.5950
2346979,0.0566,-0.7809,-0.5970
2346995,0.0531,-0.7700,-0.6021
2347011,0.0493,-0.7598,-0.6083
2347029,0.0441,-0.7471,-0.6195
2347046,0.0409,-0.7407,-0.6284
2347062,0.0381,-0.7361,-0.6388
2347077,0.0367,-0.7343,-0.6448
2347132,0.0276,-0.7208,-0.6998
2347148,0.0242,-0.7144,-0.7183
2347158,0.0222,-0.7106,-0.7273
2347174,0.0177,-0.7019,-0.7445
2347185,0.0127,-0.6921,-0.7601
2347201,0.0076,-0.6820,-0.7733
2347219,0.0027,-0.6725,-0.7837
2347232,0.0006,-0.6683,-0.7878
2347250,-0.0042,-0.6592,-0.7961
2347265,-0.0050,-0.6573,-0.7977
2347302,-0.0054,-0.6576,-0.7969
2347318,-0.0043,-0.6614,-0.7917
2347334,-0.0033,-0.6665,-0.7833
2347344,-0.0029,-0.6693,-0.7780
2347360,-0.0023,-0.6754,-0.7648
2347376,-0.0022,-0.6815,-0.7491
2347392,-0.0024,-0.6876,-0.7321
2347435,-0.0043,-0.6995,-0.6924
2347445,-0.0048,-0.7008,-0.6805
2347455,-0.0063,-0.7014,-0.6758
2347466,-0.0073,-0.7008,-0.6715
2347482,-0.0096,-0.6973,-0.6644
2347498,-0.0125,-0.6914,-0.6573
2347527,-0.0160,-0.6776,-0.6331
2347543,-0.0156,-0.6750,-0.6095
2347559,-0.0115,-0.6735,-0.5933
2347569,-0.0016,-0.6786,-0.5504
2347585,0.0165,-0.6929,-0.4910
2347600,0.0292,-0.7043,-0.4545
2347616,0.0632,-0.7365,-0.3677
2347634,0.1378,-0.8083,-0.2070
2347649,0.1692,-0.8383,-0.1475
2347660,0.2407,-0.9055,-0.0238
2347676,0.3220,-0.9805,0.0986
2347692,0.4095,-1.0591,0.2103
2347738,0.6223,-1.2357,0.3748
2347778,0.7513,-1.2980,0.2697
2347788,0.7595,-1.2867,0.2097
2347815,0.7233,-1.1465,-0.1471
2347824,0.6975,-1.0885,-0.2583
2347840,0.6292,-0.9508,-0.4934
2347856,0.5432,-0.7943,-0.7313
2347866,0.4957,-0.7134,-0.8468
2347881,0.3964,-0.5544,-1.0632
2347897,0.2972,-0.4087,-1.2531
2347933,0.1262,-0.1866,-1.5262
2347949,0.0627,-0.1178,-1.5996
2347965,0.0161,-0.0787,-1.6270
2347983,-0.0139,-0.0682,-1.6093
2347999,-0.0286,-0.0842,-1.5505
2348015,-0.0299,-0.1230,-1.4583
2348031,-0.0201,-0.1799,-1.3424
2348076,0.0468,-0.4009,-0.9631
2348090,0.0593,-0.4373,-0.9080
2348106,0.0825,-0.5039,-0.8115
2348135,0.1151,-0.6050,-0.6843
2348151,0.1237,-0.6384,-0.6536
2348167,0.1276,-0.6620,-0.6415
2348177,0.1282,-0.6707,-0.6412
2348193,0.1273,-0.6827,-0.6493
2348209,0.1254,-0.6899,-0.6648
2348225,0.1235,-0.6945,-0.6830
2348243,0.1226,-0.6981,-0.7000
2348255,0.1228,-0.7020,-0.7129
2348270,0.1233,-0.7042,-0.7174
2348293,0.1267,-0.7113,-0.7224
2348336,0.1396,-0.7279,-0.7037
2348376,0.1481,-0.7396,-0.6816
2348387,0.1512,-0.7456,-0.6698
2348403,0.1533,-0.7521,-0.6582
2348419,0.1544,-0.7593,-0.6471
2348435,0.1548,-0.7667,-0.6370
2348446,0.1547,-0.7705,-0.6323
2348456,0.1543,-0.7742,-0.6278
2348472,0.1531,-0.7812,-0.6195
2348490,0.1506,-0.7877,-0.6117
2348506,0.1472,-0.7935,-0.6039
2348540,0.1376,-0.8025,-0.5836
2348556,0.1321,-0.8066,-0.5792
2348572,0.1267,-0.8112,-0.5701
2348590,0.1200,-0.8190,-0.5559
2348605,0.1183,-0.8220,-0.5514
2348621,0.1154,-0.8286,-0.5432
2348637,0.1133,-0.8356,-0.5367
2348683,0.1106,-0.8527,-0.5314
2348694,0.1104,-0.8540,-0.5326
2348710,0.1094,-0.8551,-0.5364
2348753,0.1031,-0.8425,-0.5577
2348767,0.1014,-0.8383,-0.5621
2348785,0.0975,-0.8284,-0.5715
2348801,0.0928,-0.8168,-0.5814
2348816,0.0872,-0.8038,-0.5918
2348831,0.0808,-0.7900,-0.6025
2348849,0.0740,-0.7760,-0.6135
2348865,0.0669,-0.7621,-0.6250
2348880,0.0597,-0.7490,-0.6368
2348897,0.0526,-0.7371,-0.6489
2348931,0.0393,-0.7184,-0.6721
2348945,0.0331,-0.7119,-0.6824
2348979,0.0217,-0.7045,-0.6982
2348989,0.0193,-0.7037,-0.7012
2349005,0.0149,-0.7034,-0.7053
2349020,0.0114,-0.7045,-0.7070
2349036,0.0087,-0.7070,-0.7064
2349054,0.0071,-0.7109,-0.7034
2349065,0.0065,-0.7161,-0.6981
2349081,0.0070,-0.7222,-0.6908
2349099,0.0087,-0.7290,-0.6819
2349136,0.0153,-0.7438,-0.6598
2349152,0.0199,-0.7521,-0.6470
2349168,0.0249,-0.7609,-0.6333
2349178,0.0298,-0.7699,-0.6198
2349194,0.0321,-0.7742,-0.6069
2349210,0.0363,-0.7819,-0.6011
2349226,0.0398,-0.7877,-0.5905
2349244,0.0438,-0.7930,-0.5774
2349291,0.0485,-0.7942,-0.5570
2349302,0.0507,-0.7928,-0.5463
2349329,0.0562,-0.7902,-0.5238
2349344,0.0624,-0.7885,-0.5032
2349360,0.0717,-0.7876,-0.4772
2349378,0.0848,-0.7887,-0.4454
2349389,0.0930,-0.7906,-0.4275
2349405,0.1128,-0.7985,-0.3872
2349421,0.1371,-0.8127,-0.3412
2349439,0.1658,-0.8345,-0.2583
2349455,0.1984,-0.8638,-0.2318
2349471,0.2344,-0.9001,-0.1677
2349487,0.2733,-0.9425,-0.0979
2349524,0.3779,-1.0624,0.0879
2349540,0.4197,-1.1100,0.1560
2349556,0.4589,-1.1528,0.2118
2349590,0.5215,-1.2094,0.2557
2349606,0.5405,-1.2148,0.2272
2349622,0.5490,-1.1998,0.1564
2349632,0.5490,-1.1833,0.1044
2349648,0.5404,-1.1312,-0.0311
2349664,0.5204,-1.0537,-0.2036
2349675,0.5061,-1.0066,-0.3009
2349693,0.4484,-0.8427,-0.6210
2349712,0.4005,-0.7249,-0.8418
2349728,0.3500,-0.6090,-1.0527
2349744,0.3010,-0.5018,-1.2405
2349787,0.2048,-0.3042,-1.5345
2349800,0.1804,-0.2615,-1.5665
2349829,0.1598,-0.2390,-1.5271
2349844,0.1558,-0.2491,-1.4545
2349860,0.1580,-0.2751,-1.3574
2349896,0.1740,-0.3558,-1.1367
2349912,0.1837,-0.4020,-1.0328
2349923,0.1921,-0.4479,-0.9425
2349939,0.1980,-0.4915,-0.8691
2349955,0.2006,-0.5314,-0.8136
2349966,0.2004,-0.5497,-0.7924
2349993,0.1953,-0.5973,-0.7516
2350009,0.1887,-0.6229,-0.7397
2350025,0.1803,-0.6440,-0.7360
2350043,0.1707,-0.6611,-0.7367
2350059,0.1606,-0.6742,-0.7384
2350075,0.1509,-0.6841,-0.7384
2350091,0.1425,-0.6915,-0.7347
2350109,0.1362,-0.6976,-0.7263
2350127,0.1311,-0.7068,-0.7045
2350143,0.1296,-0.7136,-0.6844
2350158,0.1293,-0.7174,-0.6735
2350220,0.1315,-0.7572,-0.5890
2350238,0.1334,-0.7690,-0.5764
2350254,0.1354,-0.7814,-0.5687
2350270,0.1364,-0.7937,-0.5651
2350281,0.1364,-0.8055,-0.5646
2350299,0.1334,-0.8163,-0.5664
2350312,0.1317,-0.8212,-0.5680
2350330,0.1272,-0.8302,-0.5720
2350345,0.1216,-0.8383,-0.5765
2350379,0.1080,-0.8521,-0.5854
2350395,0.1005,-0.8535,-0.5863
2350411,0.0927,-0.8549,-0.5870
2350429,0.0807,-0.8538,-0.5864
2350444,0.0768,-0.8527,-0.5859
2350460,0.0693,-0.8496,-0.5848
2350504,0.0537,-0.8329,-0.5868
2350514,0.0521,-0.8293,-0.5880
2350532,0.0499,-0.8215,-0.5909
2350548,0.0485,-0.8134,-0.5950
2350564,0.0479,-0.8047,-0.6003
2350598,0.0476,-0.7855,-0.6155
2350614,0.0475,-0.7756,-0.6243
2350630,0.0468,-0.7660,-0.6329
2350641,0.0453,-0.7568,-0.6414
2350651,0.0443,-0.7523,-0.6455
2350667,0.0415,-0.7440,-0.6533
2350683,0.0380,-0.7362,-0.6608
2350699,0.0339,-0.7292,-0.6677
2350717,0.0295,-0.7233,-0.6740
2350736,0.0250,-0.7186,-0.6792
2350752,0.0205,-0.7156,-0.6830
2350768,0.0161,-0.7142,-0.6848
2350811,0.0077,-0.7178,-0.6792
2350858,0.0067,-0.7355,-0.6493
2350868,0.0076,-0.7395,-0.6423
2350884,0.0101,-0.7478,-0.6277
2350900,0.0135,-0.7557,-0.6130
2350916,0.0173,-0.7629,-0.5991
2350927,0.0214,-0.7689,-0.5865
2350956,0.0269,-0.7750,-0.5708
2350972,0.0297,-0.7773,-0.5626
2350988,0.0317,-0.7783,-0.5569
2350998,0.0326,-0.7784,-0.5551
2351014,0.0337,-0.7778,-0.5538
2351030,0.0343,-0.7765,-0.5563
2351046,0.0343,-0.7747,-0.5627
2351064,0.0337,-0.7723,-0.5737
2351080,0.0319,-0.7692,-0.5898
2351096,0.0284,-0.7639,-0.6115
2351112,0.0226,-0.7555,-0.6384
2351145,0.0009,-0.7263,-0.7056
2351174,-0.0365,-0.6807,-0.7783
2351183,-0.0477,-0.6675,-0.7949
2351199,-0.0712,-0.6403,-0.8226
2351210,-0.0826,-0.6268,-0.8328
2351223,-0.1036,-0.6028,-0.8431
2351239,-0.1193,-0.5847,-0.8370
2351255,-0.1266,-0.5760,-0.8116
2351271,-0.1227,-0.5796,-0.7660
2351281,-0.1158,-0.5864,-0.7358
2351297,-0.0916,-0.6108,-0.6617
2351313,-0.0530,-0.6489,-0.5720
2351326,-0.0284,-0.6724,-0.5223
2351343,0.0294,-0.7267,-0.4161
2351361,0.1338,-0.8213,-0.2480
2351377,0.2102,-0.8888,-0.1368
2351393,0.2881,-0.9565,-0.0309
2351427,0.4366,-1.0801,0.1548
2351463,0.5609,-1.1776,0.2939
2351473,0.5865,-1.1982,0.3196
2351489,0.6307,-1.2362,0.3574
2351500,0.6641,-1.2695,0.3740
2351514,0.6764,-1.2842,0.3728
2351530,0.6915,-1.3073,0.3479
2351540,0.6938,-1.3179,0.2885
2351559,0.6832,-1.3088,0.1904
2351575,0.6602,-1.2739,0.0527
2351590,0.6251,-1.2095,-0.1223
2351636,0.4916,-0.9250,-0.6802
2351651,0.4253,-0.7754,-0.9202
2351668,0.3553,-0.6179,-1.1444
2351683,0.2837,-0.4637,-1.3346
2351699,0.2128,-0.3242,-1.4764
2351714,0.1461,-0.2092,-1.5619
2351732,0.0874,-0.1263,-1.5900
2351765,0.0094,-0.0691,-1.4987
2351776,-0.0062,-0.0925,-1.3998
2351841,0.0332,-0.3429,-0.9069
2351859,0.0709,-0.4709,-0.8188
2351875,0.0952,-0.5464,-0.7457
2351890,0.1061,-0.5796,-0.7181
2351906,0.1245,-0.6356,-0.6801
2351922,0.1372,-0.6775,-0.6628
2351932,0.1438,-0.7058,-0.6622
2351947,0.1449,-0.7155,-0.6665
2351962,0.1436,-0.7271,-0.6813
2351981,0.1348,-0.7313,-0.7101
2352029,0.1150,-0.7268,-0.7507
2352073,0.1010,-0.7335,-0.7394
2352083,0.1000,-0.7373,-0.7316
2352099,0.0990,-0.7466,-0.7114
2352115,0.0995,-0.7579,-0.6866
2352131,0.1017,-0.7706,-0.6591
2352149,0.1056,-0.7845,-0.6309
2352165,0.1111,-0.7994,-0.6038
2352176,0.1143,-0.8070,-0.5909
2352187,0.1215,-0.8217,-0.5673
2352203,0.1292,-0.8354,-0.5468
2352235,0.1444,-0.8616,-0.5168
2352251,0.1510,-0.8746,-0.5083
2352267,0.1559,-0.8866,-0.5039
2352277,0.1576,-0.8916,-0.5031
2352293,0.1589,-0.8989,-0.5038
2352309,0.1573,-0.9017,-0.5063
2352325,0.1522,-0.8997,-0.5095
2352342,0.1438,-0.8933,-0.5122
2352379,0.1196,-0.8726,-0.5145
2352390,0.1062,-0.8608,-0.5148
2352427,0.0824,-0.8418,-0.5159
2352443,0.0735,-0.8359,-0.5177
2352459,0.0670,-0.8325,-0.5203
2352469,0.0647,-0.8315,-0.5217
2352480,0.0621,-0.8306,-0.5248
2352496,0.0618,-0.8309,-0.5272
2352511,0.0624,-0.8314,-0.5281
2352527,0.0646,-0.8331,-0.5288
2352537,0.0677,-0.8353,-0.5282
2352553,0.0715,-0.8379,-0.5266
2352568,0.0734,-0.8392,-0.5256
2352583,0.0769,-0.8418,-0.5237
2352593,0.0785,-0.8440,-0.5221
2352623,0.0824,-0.8462,-0.5212
2352638,0.0831,-0.8469,-0.5225
2352681,0.0836,-0.8459,-0.5339
2352691,0.0837,-0.8453,-0.5416
2352707,0.0837,-0.8440,-0.5458
2352723,0.0837,-0.8423,-0.5543
2352739,0.0833,-0.8403,-0.5623
2352750,0.0824,-0.8380,-0.5690
2352760,0.0819,-0.8367,-0.5715
2352776,0.0807,-0.8336,-0.5753
2352795,0.0795,-0.8302,-0.5769
2352811,0.0785,-0.8264,-0.5762
2352857,0.0776,-0.8164,-0.5560
2352870,0.0779,-0.8149,-0.5496
2352888,0.0790,-0.8109,-0.5245
2352903,0.0795,-0.8094,-0.5145
2352919,0.0808,-0.8064,-0.4924
2352935,0.0829,-0.8037,-0.4685
2352953,0.0876,-0.8013,-0.4313
2352986,0.0990,-0.8043,-0.3820
2352996,0.1029,-0.8066,-0.3695
2353033,0.1239,-0.8234,-0.3162
2353044,0.1383,-0.8370,-0.2864
2353060,0.1562,-0.8546,-0.2538
2353078,0.1791,-0.8761,-0.2183
2353094,0.2075,-0.9014,-0.1785
2353110,0.2421,-0.9303,-0.1329
2353126,0.2821,-0.9619,-0.0807
2353144,0.3270,-0.9952,-0.0214
2353160,0.3756,-1.0297,0.0447
2353176,0.4266,-1.0652,0.1150
2353192,0.4785,-1.1012,0.1853
2353202,0.5042,-1.1189,0.2183
2353232,0.5980,-1.1753,0.3090
2353241,0.6176,-1.1823,0.3147
2353257,0.6488,-1.1812,0.2965
2353293,0.6711,-1.0964,0.1157
2353306,0.6592,-1.0055,-0.0498
2353322,0.6315,-0.8856,-0.2581
2353333,0.6122,-0.8173,-0.3746
2353349,0.5647,-0.6707,-0.6243
2353367,0.5090,-0.5205,-0.8824
2353380,0.4495,-0.3783,-1.1307
2353395,0.3901,-0.2540,-1.3507
2353405,0.3615,-0.2013,-1.4447
2353421,0.3074,-0.1179,-1.5923
2353451,0.2369,-0.0469,-1.7051
2353467,0.1991,-0.0485,-1.6963
2353483,0.1703,-0.0719,-1.6418
2353493,0.1512,-0.1182,-1.5487
2353509,0.1416,-0.1810,-1.4310
2353524,0.1398,-0.2164,-1.3674
2353540,0.1409,-0.2909,-1.2389
2353558,0.1494,-0.3993,-1.0635
2353595,0.1610,-0.5114,-0.8987
2353607,0.1632,-0.5486,-0.8510
2353617,0.1631,-0.5626,-0.8353
2353647,0.1572,-0.5895,-0.8148
2353662,0.1497,-0.5979,-0.8170
2353678,0.1410,-0.6021,-0.8257
2353688,0.1366,-0.6035,-0.8358
2353704,0.1285,-0.6069,-0.8402
2353720,0.1218,-0.6128,-0.8452
2353736,0.1171,-0.6221,-0.8435
2353754,0.1150,-0.6429,-0.8259
2353770,0.1173,-0.6606,-0.8044
2353786,0.1195,-0.6704,-0.7764
2353802,0.1257,-0.6913,-0.7605
2353870,0.1636,-0.7806,-0.6129
2353909,0.1809,-0.8239,-0.5602
2353926,0.1837,-0.8400,-0.5474
2353941,0.1879,-0.8472,-0.5425
2353957,0.1899,-0.8596,-0.5347
2353973,0.1893,-0.8684,-0.5292
2353986,0.1859,-0.8730,-0.5251
2354002,0.1798,-0.8735,-0.5228
2354018,0.1713,-0.8700,-0.5222
2354032,0.1611,-0.8630,-0.5236
2354075,0.1327,-0.8369,-0.5359
2354091,0.1212,-0.8254,-0.5438
2354107,0.1099,-0.8145,-0.5532
2354117,0.1044,-0.8091,-0.5585
2354133,0.0933,-0.7991,-0.5701
2354149,0.0825,-0.7896,-0.5825
2354165,0.0718,-0.7808,-0.5953
2354211,0.0468,-0.7590,-0.6255
2354229,0.0344,-0.7550,-0.6302
2354266,0.0239,-0.7540,-0.6302
2354282,0.0214,-0.7571,-0.6257
2354298,0.0203,-0.7616,-0.6185
2354311,0.0201,-0.7670,-0.6094
2354327,0.0206,-0.7723,-0.5992
2354343,0.0215,-0.7776,-0.5886
2354359,0.0225,-0.7823,-0.5784
2354372,0.0229,-0.7843,-0.5736
2354385,0.0233,-0.7875,-0.5651
2354401,0.0227,-0.7888,-0.5587
2354417,0.0209,-0.7875,-0.5551
2354457,0.0099,-0.7699,-0.5601
2354472,0.0070,-0.7644,-0.5629
2354512,-0.0076,-0.7333,-0.5790
2354522,-0.0112,-0.7227,-0.5828
2354538,-0.0122,-0.7152,-0.5824
2354554,-0.0120,-0.7133,-0.5803
2354565,-0.0088,-0.7133,-0.5710
2354582,-0.0021,-0.7194,-0.5547
2354598,0.0082,-0.7313,-0.5312
2354614,0.0221,-0.7488,-0.5012
2354629,0.0394,-0.7709,-0.4653
2354639,0.0492,-0.7833,-0.4453
2354668,0.0815,-0.8237,-0.3778
2354684,0.1058,-0.8525,-0.3276
2354699,0.1331,-0.8822,-0.2753
2354717,0.1643,-0.9130,-0.2223
2354733,0.2000,-0.9452,-0.1696
2354749,0.2397,-0.9796,-0.1173
2354765,0.2825,-1.0165,-0.0659
2354783,0.3575,-1.0752,0.0079
2354826,0.4419,-1.1661,0.0974
2354883,0.5173,-1.1890,-0.0109
2354897,0.5226,-1.1722,-0.1278
2354907,0.5282,-1.1187,-0.2026
2354921,0.5286,-1.0815,-0.2878
2354937,0.5239,-0.9867,-0.4838
2354953,0.5111,-0.8687,-0.7019
2354971,0.4745,-0.6672,-1.0316
2354987,0.4576,-0.5994,-1.2286
2355003,0.4188,-0.4714,-1.3154
2355019,0.3763,-0.3623,-1.4603
2355037,0.3153,-0.2502,-1.5967
2355047,0.2974,-0.2285,-1.6194
2355063,0.2660,-0.2091,-1.6301
2355079,0.2407,-0.2191,-1.5964
2355113,0.2032,-0.3063,-1.4158
2355143,0.1752,-0.4382,-1.1481
2355158,0.1692,-0.4719,-1.0791
2355174,0.1583,-0.5349,-0.9490
2355187,0.1490,-0.5885,-0.8372
2355203,0.1410,-0.6298,-0.7500
2355219,0.1335,-0.6577,-0.6897
2355235,0.1266,-0.6730,-0.6556
2355245,0.1232,-0.6765,-0.6475
2355255,0.1199,-0.6777,-0.6443
2355271,0.1135,-0.6747,-0.6509
2355287,0.1082,-0.6670,-0.6694
2355303,0.1039,-0.6577,-0.6941
2355333,0.1005,-0.6429,-0.7407
2355342,0.1006,-0.6411,-0.7487
2355358,0.1018,-0.6404,-0.7576
2355379,0.1038,-0.6438,-0.7507
2355395,0.1066,-0.6520,-0.7432
2355440,0.1191,-0.7058,-0.6584
2355450,0.1216,-0.7183,-0.6412
2355460,0.1241,-0.7312,-0.6241
2355476,0.1290,-0.7578,-0.5918
2355492,0.1335,-0.7842,-0.5637
2355503,0.1373,-0.8090,-0.5414
2355533,0.1409,-0.8411,-0.5200
2355551,0.1415,-0.8650,-0.5112
2355559,0.1412,-0.8650,-0.5112
2355576,0.1393,-0.8801,-0.5110
2355591,0.1356,-0.8832,-0.5120
2355607,0.1305,-0.8867,-0.5151
2355622,0.1246,-0.8872,-0.5192
2355640,0.1187,-0.8857,-0.5238
2355656,0.1129,-0.8828,-0.5287
2355666,0.1077,-0.8785,-0.5336
2355681,0.1052,-0.8757,-0.5360
2355697,0.1007,-0.8690,-0.5406
2355755,0.0864,-0.8307,-0.5607
2355773,0.0790,-0.8195,-0.5665
2355789,0.0731,-0.8083,-0.5728
2355800,0.0701,-0.8031,-0.5760
2355816,0.0634,-0.7933,-0.5831
2355834,0.0568,-0.7852,-0.5907
2355850,0.0504,-0.7788,-0.5986
2355883,0.0404,-0.7726,-0.6150
2355892,0.0386,-0.7723,-0.6191
2355949,0.0332,-0.7749,-0.6439
2355966,0.0326,-0.7747,-0.6490
2355976,0.0317,-0.7736,-0.6530
2355992,0.0312,-0.7726,-0.6555
2356032,0.0265,-0.7660,-0.6571
2356042,0.0233,-0.7627,-0.6566
2356057,0.0215,-0.7609,-0.6562
2356075,0.0150,-0.7550,-0.6550
2356091,0.0099,-0.7506,-0.6549
2356128,-0.0023,-0.7402,-0.6587
2356140,-0.0098,-0.7330,-0.6633
2356155,-0.0139,-0.7288,-0.6661
2356173,-0.0272,-0.7131,-0.6757
2356189,-0.0363,-0.7018,-0.6809
2356204,-0.0405,-0.6963,-0.6825
2356220,-0.0479,-0.6869,-0.6821
2356238,-0.0532,-0.6799,-0.6681
2356253,-0.0529,-0.6804,-0.6587
2356269,-0.0481,-0.6868,-0.6312
2356279,-0.0372,-0.7015,-0.5909
2356294,-0.0294,-0.7123,-0.5659
2356323,0.0168,-0.7776,-0.4366
2356359,0.0846,-0.8690,-0.2814
2356369,0.1246,-0.9182,-0.2036
2356385,0.1670,-0.9658,-0.1296
2356400,0.1886,-0.9880,-0.0947
2356411,0.2314,-1.0281,-0.0303
2356427,0.2726,-1.0604,0.0256
2356440,0.2922,-1.0731,0.0496
2356456,0.3291,-1.0908,0.0874
2356469,0.3628,-1.0986,0.1082
2356487,0.3926,-1.0975,0.1079
2356524,0.4413,-1.0651,0.0002
2356539,0.4453,-1.0538,-0.0405
2356555,0.4469,-1.0266,-0.1420
2356573,0.4318,-0.9724,-0.3433
2356588,0.4222,-0.9503,-0.4225
2356604,0.3972,-0.8988,-0.5952
2356619,0.3660,-0.8364,-0.7789
2356661,0.2688,-0.6366,-1.1973
2356677,0.2235,-0.5471,-1.3123
2356695,0.1759,-0.4281,-1.4054
2356724,0.0858,-0.3103,-1.4116
2356736,0.0513,-0.2574,-1.3809
2356752,0.0382,-0.2223,-1.3331
2356770,0.0168,-0.2057,-1.2764
2356786,0.0168,-0.2070,-1.2168
2356802,0.0260,-0.2246,-1.1591
2356818,0.0416,-0.2560,-1.1063
2356835,0.0604,-0.2980,-1.0602
2356851,0.0796,-0.3468,-1.0214
2356866,0.0883,-0.3726,-1.0046
2356882,0.1028,-0.4246,-0.9755
2356938,0.1077,-0.5774,-0.8955
2356976,0.0713,-0.6417,-0.8268
2356986,0.0624,-0.6506,-0.8104
2357002,0.0448,-0.6659,-0.7760
2357018,0.0294,-0.6792,-0.7399
2357034,0.0177,-0.6918,-0.7036
2357045,0.0137,-0.6981,-0.6859
2357055,0.0099,-0.7111,-0.6522
2357070,0.0101,-0.7177,-0.6365
2357086,0.0149,-0.7313,-0.6078
2357105,0.0308,-0.7524,-0.5719
2357153,0.0740,-0.7917,-0.5216
2357168,0.0802,-0.7970,-0.5160
2357186,0.0948,-0.8092,-0.5046
2357201,0.0983,-0.8120,-0.5027
2357217,0.1025,-0.8157,-0.5018
2357233,0.1036,-0.8171,-0.5046
2357279,0.0927,-0.8112,-0.5325
2357295,0.0873,-0.8080,-0.5470
2357306,0.0847,-0.8065,-0.5548
2357336,0.0760,-0.8042,-0.5859
2357352,0.0726,-0.8046,-0.5999
2357368,0.0697,-0.8054,-0.6121
2357381,0.0685,-0.8058,-0.6226
2357397,0.0665,-0.8062,-0.6272
2357413,0.0651,-0.8059,-0.6354
2357429,0.0637,-0.8053,-0.6418
2357439,0.0621,-0.8038,-0.6462
2357454,0.0613,-0.8029,-0.6478
2357470,0.0587,-0.8002,-0.6500
2357483,0.0555,-0.7964,-0.6511
2357503,0.0516,-0.7916,-0.6516
2357517,0.0471,-0.7859,-0.6519
2357533,0.0420,-0.7797,-0.6521
2357549,0.0364,-0.7729,-0.6530
2357586,0.0244,-0.7548,-0.6583
2357622,0.0111,-0.7413,-0.6615
2357638,0.0071,-0.7368,-0.6598
2357653,0.0040,-0.7347,-0.6552
2357666,0.0029,-0.7345,-0.6517
2357681,0.0012,-0.7358,-0.6433
2357696,0.0006,-0.7393,-0.6337
2357714,0.0006,-0.7440,-0.6240
2357744,0.0017,-0.7557,-0.6096
2357760,0.0018,-0.7614,-0.6060
2357776,0.0012,-0.7661,-0.6044
2357786,0.0005,-0.7679,-0.6045
2357802,-0.0020,-0.7704,-0.6062
2357818,-0.0052,-0.7708,-0.6101
2357834,-0.0096,-0.7688,-0.6161
2357852,-0.0149,-0.7646,-0.6237
2357899,-0.0369,-0.7399,-0.6438
2357908,-0.0410,-0.7343,-0.6449
2357961,-0.0575,-0.7040,-0.6193
2357978,-0.0565,-0.6998,-0.5762
2357991,-0.0499,-0.7020,-0.5563
2358006,-0.0354,-0.7131,-0.5082
2358021,-0.0107,-0.7346,-0.4497
2358037,0.0260,-0.7672,-0.3818
2358047,0.0493,-0.7876,-0.3447
2358063,0.1055,-0.8359,-0.2645
2358079,0.1729,-0.8926,-0.1774
2358095,0.2485,-0.9546,-0.0853
2358113,0.3282,-1.0183,0.0081
2358124,0.3684,-1.0497,0.0536
2358140,0.4463,-1.1088,0.1378
2358156,0.5175,-1.1594,0.2064
2358189,0.6227,-1.2158,0.2621
2358219,0.6573,-1.1823,0.1580
2358235,0.6448,-1.1251,0.0331
2358251,0.6136,-1.0421,-0.1392
2358261,0.5920,-0.9919,-0.2406
2358272,0.5393,-0.8781,-0.4658
2358288,0.5092,-0.8163,-0.7103
2358304,0.4445,-0.6895,-0.8262
2358322,0.3440,-0.5107,-1.1594
2358333,0.3115,-0.4590,-1.2557
2358349,0.2511,-0.3718,-1.4186
2358365,0.1985,-0.3083,-1.5367
2358402,0.1219,-0.2500,-1.6315
2358418,0.0970,-0.2498,-1.6112
2358434,0.0791,-0.2644,-1.5519
2358444,0.0664,-0.2905,-1.4611
2358460,0.0579,-0.3251,-1.3488
2358499,0.0526,-0.4098,-1.1034
2358509,0.0557,-0.4552,-0.9913
2358525,0.0585,-0.4775,-0.9414
2358535,0.0658,-0.5205,-0.8567
2358551,0.0740,-0.5592,-0.7933
2358562,0.0779,-0.5764,-0.7694
2358594,0.0875,-0.6276,-0.7179
2358609,0.0875,-0.6417,-0.7119
2358625,0.0844,-0.6490,-0.7139
2358635,0.0818,-0.6505,-0.7166
2358650,0.0754,-0.6500,-0.7231
2358666,0.0685,-0.6470,-0.7290
2358682,0.0619,-0.6433,-0.7321
2358700,0.0566,-0.6409,-0.7313
2358716,0.0536,-0.6407,-0.7264
2358732,0.0537,-0.6436,-0.7181
2358743,0.0552,-0.6462,-0.7128
2358781,0.0747,-0.6727,-0.6779
2358813,0.0969,-0.7052,-0.6414
2358823,0.1022,-0.7139,-0.6313
2358839,0.1115,-0.7312,-0.6113
2358850,0.1155,-0.7396,-0.6014
2358866,0.1221,-0.7552,-0.5822
2358884,0.1265,-0.7692,-0.5645
2358900,0.1289,-0.7810,-0.5490
2358916,0.1296,-0.7913,-0.5363
2358932,0.1295,-0.8004,-0.5270
2358999,0.1292,-0.8337,-0.5317
2359012,0.1295,-0.8356,-0.5367
2359022,0.1301,-0.8365,-0.5421
2359038,0.1309,-0.8368,-0.5541
2359053,0.1309,-0.8345,-0.5663
2359069,0.1298,-0.8297,-0.5781
2359087,0.1274,-0.8228,-0.5892
2359130,0.1139,-0.7954,-0.6166
2359148,0.1079,-0.7869,-0.6235
2359158,0.1049,-0.7831,-0.6267
2359169,0.1018,-0.7797,-0.6296
2359185,0.0958,-0.7740,-0.6354
2359201,0.0905,-0.7701,-0.6414
2359231,0.0822,-0.7660,-0.6560
2359247,0.0789,-0.7645,-0.6650
2359263,0.0757,-0.7625,-0.6752
2359273,0.0739,-0.7611,-0.6807
2359289,0.0693,-0.7573,-0.6927
2359305,0.0629,-0.7517,-0.7065
2359321,0.0543,-0.7438,-0.7224
2359339,0.0436,-0.7334,-0.7402
2359355,0.0309,-0.7207,-0.7592
2359366,0.0239,-0.7137,-0.7687
2359382,0.0093,-0.6991,-0.7863
2359437,-0.0381,-0.6569,-0.8051
2359453,-0.0455,-0.6517,-0.7908
2359466,-0.0479,-0.6514,-0.7662
2359482,-0.0441,-0.6566,-0.7313
2359497,-0.0396,-0.6616,-0.7100
2359513,-0.0251,-0.6764,-0.6604
2359526,-0.0028,-0.6978,-0.6022
2359536,0.0114,-0.7107,-0.5702
2359552,0.0454,-0.7405,-0.5013
2359573,0.1099,-0.7924,-0.3881
2359581,0.1342,-0.8109,-0.3484
2359620,0.2382,-0.8864,-0.1550
2359636,0.2913,-0.9222,-0.1082
2359651,0.3431,-0.9553,-0.0365
2359661,0.3926,-0.9847,0.0249
2359676,0.4160,-0.9980,0.0508
2359691,0.4594,-1.0216,0.0906
2359734,0.5375,-1.0671,0.1072
2359744,0.5526,-1.0801,0.0758
2359755,0.5562,-1.0847,0.0518
2359773,0.5541,-1.0881,-0.0129
2359789,0.5399,-1.0812,-0.0986
2359826,0.4552,-0.9989,-0.3864
2359842,0.4062,-0.9358,-0.5179
2359858,0.3529,-0.8560,-0.6511
2359868,0.3259,-0.8107,-0.7172
2359884,0.2738,-0.7128,-0.8461
2359911,0.2068,-0.5575,-1.0264
2359920,0.1888,-0.5063,-1.0813
2359936,0.1610,-0.4098,-1.1804
2359951,0.1440,-0.3250,-1.2614
2359966,0.1373,-0.2570,-1.3198
2359977,0.1373,-0.2303,-1.3400
2360031,0.1731,-0.1913,-1.3186
2360070,0.2013,-0.2808,-1.1910
2360080,0.2118,-0.3042,-1.1615
2360096,0.2178,-0.3527,-1.1019
2360112,0.2185,-0.4003,-1.0448
2360128,0.2139,-0.4447,-0.9928
2360146,0.2043,-0.4840,-0.9479
2360162,0.1907,-0.5173,-0.9114
2360180,0.1740,-0.5442,-0.8834
2360196,0.1556,-0.5646,-0.8634
2360233,0.1104,-0.5919,-0.8381
2360249,0.1018,-0.5947,-0.8350
2360265,0.0859,-0.5990,-0.8279
2360275,0.0719,-0.6025,-0.8185
2360291,0.0603,-0.6066,-0.8055
2360306,0.0555,-0.6091,-0.7977
2360322,0.0487,-0.6155,-0.7791
2360340,0.0457,-0.6288,-0.7451
2360377,0.0554,-0.6534,-0.6953
2360387,0.0599,-0.6604,-0.6831
2360424,0.0895,-0.6964,-0.6279
2360440,0.1022,-0.7106,-0.6099
2360456,0.1134,-0.7247,-0.5942
2360466,0.1182,-0.7317,-0.5875
2360482,0.1254,-0.7452,-0.5759
2360498,0.1295,-0.7581,-0.5668
2360514,0.1306,-0.7703,-0.5602
2360532,0.1289,-0.7819,-0.5560
2360548,0.1251,-0.7930,-0.5544
2360562,0.1200,-0.8030,-0.5555
2360570,0.1172,-0.8073,-0.5571
2360588,0.1117,-0.8145,-0.5625
2360617,0.1042,-0.8207,-0.5745
2360632,0.1001,-0.8218,-0.5834
2360648,0.0964,-0.8207,-0.5918
2360681,0.0907,-0.8110,-0.6040
2360694,0.0890,-0.8027,-0.6078
2360710,0.0883,-0.7931,-0.6105
2360721,0.0884,-0.7880,-0.6116
2360737,0.0895,-0.7783,-0.6139
2360755,0.0916,-0.7700,-0.6167
2360771,0.0946,-0.7639,-0.6205
2360793,0.1000,-0.7596,-0.6273
2360809,0.1034,-0.7598,-0.6323
2360846,0.1064,-0.7666,-0.6445
2360862,0.1056,-0.7683,-0.6495
2360880,0.1002,-0.7717,-0.6553
2360896,0.0941,-0.7720,-0.6620
2360912,0.0862,-0.7703,-0.6699
2360927,0.0815,-0.7687,-0.6743
2360945,0.0662,-0.7610,-0.6879
2360988,0.0386,-0.7422,-0.7062
2360999,0.0332,-0.7383,-0.7090
2361046,0.0085,-0.7181,-0.7240
2361060,0.0042,-0.7131,-0.7264
2361070,0.0027,-0.7111,-0.7266
2361086,0.0010,-0.7076,-0.7235
2361101,0.0006,-0.7048,-0.7152
2361117,0.0017,-0.7025,-0.7007
2361135,0.0044,-0.7006,-0.6791
2361151,0.0089,-0.6996,-0.6501
2361167,0.0155,-0.7001,-0.6140
2361183,0.0251,-0.7029,-0.5709
2361223,0.0679,-0.7275,-0.4396
2361239,0.0947,-0.7469,-0.3811
2361254,0.1105,-0.7589,-0.3516
2361289,0.2123,-0.8389,-0.2080
2361305,0.2627,-0.8771,-0.1556
2361321,0.3174,-0.9172,-0.1077
2361331,0.3458,-0.9377,-0.0856
2361347,0.4037,-0.9789,-0.0458
2361358,0.4326,-0.9991,-0.0284
2361374,0.4883,-1.0377,0.0002
2361392,0.5386,-1.0714,0.0193
2361402,0.5804,-1.0968,0.0264
2361418,0.5972,-1.1106,0.0190
2361434,0.6204,-1.1123,-0.0223
2361450,0.6282,-1.1045,-0.0260
2361479,0.5956,-1.0397,-0.1642
2361495,0.5583,-0.9803,-0.2711
2361511,0.5110,-0.9038,-0.4036
2361521,0.4845,-0.8600,-0.4788
2361537,0.4285,-0.7643,-0.6438
2361553,0.3713,-0.6631,-0.8212
2361567,0.3165,-0.5632,-1.0002
2361603,0.2234,-0.3939,-1.3132
2361635,0.1578,-0.2957,-1.4993
2361650,0.1346,-0.2758,-1.5336
2361666,0.1169,-0.2723,-1.5305
2361676,0.1096,-0.2755,-1.5162
2361692,0.0978,-0.2894,-1.4666
2361708,0.0886,-0.3104,-1.3943
2361723,0.0809,-0.3357,-1.3075
2361744,0.0742,-0.3628,-1.2146
2361760,0.0679,-0.3903,-1.1235
2361776,0.0618,-0.4169,-1.0415
2361792,0.0560,-0.4420,-0.9741
2361802,0.0533,-0.4648,-0.9248
2361820,0.0461,-0.4846,-0.8944
2361836,0.0420,-0.5005,-0.8813
2361852,0.0383,-0.5117,-0.8817
2361863,0.0367,-0.5156,-0.8855
2361893,0.0331,-0.5219,-0.9083
2361947,0.0432,-0.5322,-0.9081
2361963,0.0520,-0.5452,-0.8885
2361979,0.0634,-0.5654,-0.8588
2361995,0.0770,-0.5933,-0.8197
2362011,0.0919,-0.6279,-0.7731
2362060,0.1365,-0.7534,-0.6104
2362073,0.1495,-0.7942,-0.5570
2362083,0.1556,-0.8130,-0.5321
2362099,0.1670,-0.8466,-0.4869
2362115,0.1772,-0.8732,-0.4497
2362131,0.1860,-0.8923,-0.4215
2362148,0.1929,-0.9038,-0.4022
2362164,0.1973,-0.9081,-0.3912
2362180,0.1989,-0.9061,-0.3875
2362196,0.1971,-0.8995,-0.3896
2362232,0.1849,-0.8794,-0.4075
2362286,0.1515,-0.8591,-0.4674
2362304,0.1437,-0.8624,-0.4882
2362320,0.1378,-0.8695,-0.5093
2362336,0.1343,-0.8796,-0.5297
2362352,0.1327,-0.8912,-0.5481
2362370,0.1326,-0.9028,-0.5636
2362386,0.1333,-0.9124,-0.5751
2362402,0.1340,-0.9183,-0.5819
2362418,0.1344,-0.9197,-0.5835
2362436,0.1338,-0.9158,-0.5801
2362446,0.1332,-0.9116,-0.5765
2362462,0.1312,-0.8993,-0.5664
2362478,0.1287,-0.8818,-0.5525
2362494,0.1260,-0.8607,-0.5360
2362523,0.1227,-0.8154,-0.4982
2362562,0.1248,-0.7788,-0.4587
2362577,0.1281,-0.7662,-0.4398
2362592,0.1328,-0.7581,-0.4216
2362606,0.1393,-0.7545,-0.4038
2362622,0.1482,-0.7560,-0.3859
2362632,0.1539,-0.7588,-0.3763
2362650,0.1687,-0.7690,-0.3549
2362665,0.1884,-0.7856,-0.3280
2362680,0.2130,-0.8088,-0.2936
2362717,0.2736,-0.8723,-0.1697
2362732,0.3082,-0.9097,-0.1481
2362748,0.3445,-0.9473,-0.0974
2362769,0.3978,-0.9956,-0.0388
2362785,0.4291,-1.0155,-0.0192
2362801,0.4534,-1.0210,-0.0204
2362817,0.4685,-1.0096,-0.0463
2362827,0.4720,-0.9973,-0.0696
2362860,0.4595,-0.9015,-0.2386
2362874,0.4387,-0.8270,-0.3669
2362911,0.3784,-0.6454,-0.6866
2362927,0.3436,-0.5519,-0.8613
2362943,0.3093,-0.4648,-1.0330
2362953,0.2930,-0.4254,-1.1146
2362969,0.2631,-0.3574,-1.2631
2362984,0.2365,-0.3069,-1.3837
2362999,0.2119,-0.2762,-1.4685
2363016,0.1876,-0.2661,-1.5125
2363032,0.1622,-0.2758,-1.5149
2363048,0.1356,-0.3025,-1.4795
2363064,0.1085,-0.3433,-1.4139
2363083,0.0819,-0.3942,-1.3282
2363129,0.0159,-0.5659,-1.0469
2363165,-0.0115,-0.6597,-0.9028
2363175,-0.0165,-0.6777,-0.8518
2363191,-0.0249,-0.7061,-0.8315
2363202,-0.0310,-0.7244,-0.8009
2363218,-0.0350,-0.7329,-0.7816
2363236,-0.0366,-0.7333,-0.7716
2363252,-0.0358,-0.7275,-0.7679
2363268,-0.0327,-0.7179,-0.7678
2363278,-0.0306,-0.7124,-0.7683
2363294,-0.0254,-0.7013,-0.7692
2363324,-0.0138,-0.6833,-0.7654
2363340,-0.0076,-0.6779,-0.7595
2363356,-0.0011,-0.6749,-0.7504
2363366,0.0023,-0.6743,-0.7445
2363382,0.0090,-0.6749,-0.7297
2363398,0.0154,-0.6776,-0.7111
2363414,0.0205,-0.6820,-0.6891
2363432,0.0242,-0.6880,-0.6653
2363464,0.0276,-0.7024,-0.6212
2363475,0.0281,-0.7063,-0.6124
2363486,0.0287,-0.7144,-0.5991
2363516,0.0291,-0.7271,-0.5900
2363532,0.0291,-0.7355,-0.5905
2363548,0.0289,-0.7435,-0.5950
2363558,0.0289,-0.7474,-0.5983
2363573,0.0292,-0.7555,-0.6060
2363585,0.0302,-0.7640,-0.6140
2363601,0.0321,-0.7728,-0.6207
2363617,0.0336,-0.7821,-0.6250
2363633,0.0375,-0.7916,-0.6260
2363649,0.0426,-0.7966,-0.5940
2363665,0.0488,-0.8069,-0.6211
2363682,0.0587,-0.8214,-0.6096
2363692,0.0619,-0.8254,-0.6047
2363708,0.0676,-0.8317,-0.5942
2363719,0.0701,-0.8337,-0.5887
2363735,0.0735,-0.8359,-0.5775
2363789,0.0686,-0.8265,-0.5397
2363810,0.0626,-0.8208,-0.5309
2363826,0.0552,-0.8143,-0.5240
2363842,0.0466,-0.8074,-0.5197
2363858,0.0376,-0.8003,-0.5181
2363868,0.0330,-0.7970,-0.5182
2363884,0.0239,-0.7905,-0.5204
2363901,0.0154,-0.7849,-0.5249
2363917,0.0072,-0.7799,-0.5309
2363972,-0.0118,-0.7715,-0.5524
2363981,-0.0123,-0.7728,-0.5532
2364005,-0.0087,-0.7834,-0.5474
2364021,-0.0018,-0.7963,-0.5337
2364037,0.0082,-0.8138,-0.5107
2364080,0.0435,-0.8726,-0.4150
2364095,0.0587,-0.8984,-0.3684
2364106,0.0660,-0.9110,-0.3453
2364122,0.0790,-0.9338,-0.3035
2364138,0.0886,-0.9520,-0.2708
2364192,0.0842,-0.9563,-0.2682
2364207,0.0717,-0.9396,-0.2985
2364217,0.0640,-0.9290,-0.3168
2364233,0.0466,-0.9042,-0.3573
2364249,0.0282,-0.8770,-0.3984
2364265,0.0104,-0.8500,-0.4349
2364283,-0.0050,-0.8254,-0.4626
2364299,-0.0166,-0.8049,-0.4780
2364309,-0.0205,-0.7966,-0.4805
2364325,-0.0237,-0.7843,-0.4744
2364341,-0.0197,-0.7784,-0.4532
2364395,0.0630,-0.8152,-0.2744
2364413,0.1075,-0.8423,-0.2029
2364424,0.1333,-0.8580,-0.1663
2364440,0.1923,-0.8929,-0.0945
2364456,0.2604,-0.9299,-0.0299
2364474,0.3364,-0.9657,0.0211
2364490,0.4177,-0.9962,0.0525
2364506,0.5005,-1.0171,0.0587
2364516,0.5798,-1.0238,0.0353
2364531,0.6166,-1.0206,0.0115
2364561,0.7273,-0.9579,-0.1698
2364576,0.7538,-0.8965,-0.3093
2364591,0.7581,-0.8196,-0.4738
2364604,0.7517,-0.7775,-0.5624
2364614,0.7399,-0.6912,-0.7445
2364629,0.7007,-0.6490,-0.8350
2364644,0.6433,-0.5723,-1.0074
2364679,0.4929,-0.4689,-1.2828
2364692,0.4110,-0.4496,-1.3711
2364708,0.3318,-0.4521,-1.4203
2364718,0.2944,-0.4611,-1.4297
2364734,0.2266,-0.4908,-1.4191
2364771,0.1047,-0.6035,-1.2477
2364787,0.0754,-0.6479,-1.1409
2364803,0.0557,-0.6853,-1.0264
2364813,0.0488,-0.7007,-0.9692
2364829,0.0403,-0.7241,-0.8608
2364845,0.0372,-0.7384,-0.7672
2364861,0.0381,-0.7449,-0.6943
2364882,0.0410,-0.7451,-0.6461
2364898,0.0448,-0.7413,-0.6237
2364914,0.0485,-0.7350,-0.6256
2364925,0.0514,-0.7277,-0.6481
2364962,0.0540,-0.7139,-0.7323
2364998,0.0530,-0.7025,-0.8491
2365008,0.0526,-0.7009,-0.8676
2365024,0.0524,-0.6984,-0.8958
2365040,0.0533,-0.6965,-0.9105
2365056,0.0565,-0.6958,-0.9106
2365074,0.0623,-0.6956,-0.8961
2365090,0.0709,-0.6956,-0.8682
2365106,0.0823,-0.6958,-0.8289
2365118,0.0889,-0.6960,-0.8055
2365129,0.1033,-0.6974,-0.7539
2365175,0.1427,-0.7100,-0.6112
2365191,0.1581,-0.7205,-0.5566
2365201,0.1653,-0.7271,-0.5314
2365216,0.1787,-0.7427,-0.4857
2365232,0.1898,-0.7616,-0.4484
2365248,0.1984,-0.7827,-0.4205
2365266,0.2039,-0.8051,-0.4025
2365303,0.2015,-0.8558,-0.3964
2365319,0.1936,-0.8700,-0.4056
2365365,0.1549,-0.8802,-0.4423
2365381,0.1339,-0.8719,-0.4587
2365391,0.1118,-0.8561,-0.4753
2365407,0.0908,-0.8340,-0.4919
2365422,0.0813,-0.8210,-0.5001
2365438,0.0648,-0.7936,-0.5167
2365456,0.0486,-0.7527,-0.5414
2365471,0.0454,-0.7405,-0.5496
2365487,0.0424,-0.7191,-0.5658
2365503,0.0430,-0.7026,-0.5822
2365521,0.0491,-0.6877,-0.6066
2365531,0.0519,-0.6853,-0.6145
2365547,0.0576,-0.6837,-0.6296
2365563,0.0624,-0.6862,-0.6431
2365574,0.0641,-0.6887,-0.6488
2365630,0.0604,-0.7266,-0.6641
2365643,0.0582,-0.7346,-0.6621
2365653,0.0530,-0.7516,-0.6610
2365669,0.0468,-0.7689,-0.6593
2365685,0.0397,-0.7849,-0.6597
2365700,0.0360,-0.7919,-0.6608
2365717,0.0281,-0.8036,-0.6650
2365735,0.0159,-0.8147,-0.6754
2365751,0.0079,-0.8173,-0.6837
2365767,0.0009,-0.8159,-0.6914
2365806,-0.0073,-0.8052,-0.6971
2365822,-0.0068,-0.7987,-0.6913
2365838,-0.0028,-0.7939,-0.6775
2365851,0.0054,-0.7924,-0.6541
2365862,0.0110,-0.7932,-0.6383
2365878,0.0255,-0.7990,-0.5983
2365920,0.0803,-0.8405,-0.4490
2365930,0.1101,-0.8671,-0.3754
2365941,0.1267,-0.8820,-0.3376
2365957,0.1630,-0.9136,-0.2639
2365984,0.2233,-0.9609,-0.1682
2366020,0.3232,-1.0154,-0.0935
2366035,0.3401,-1.0193,-0.0953
2366051,0.3680,-1.0176,-0.1168
2366061,0.3873,-1.0024,-0.1620
2366076,0.3932,-0.9901,-0.1931
2366092,0.3976,-0.9567,-0.2715
2366108,0.3922,-0.9131,-0.3694
2366126,0.3705,-0.8333,-0.5437
2366145,0.3507,-0.7736,-0.6691
2366159,0.3292,-0.7124,-0.7925
2366174,0.3182,-0.6823,-0.8513
2366248,0.2339,-0.4542,-1.2134
2366258,0.2200,-0.4412,-1.2246
2366274,0.2070,-0.4209,-1.2336
2366290,0.1943,-0.4083,-1.2255
2366305,0.1880,-0.4050,-1.2152
2366323,0.1678,-0.4067,-1.1631
2366339,0.1533,-0.4167,-1.1139
2366350,0.1459,-0.4241,-1.0864
2366366,0.1309,-0.4425,-1.0281
2366405,0.0950,-0.5054,-0.8889
2366421,0.0829,-0.5348,-0.8463
2366437,0.0729,-0.5649,-0.8148
2366447,0.0687,-0.5800,-0.8037
2366463,0.0615,-0.6084,-0.7903
2366479,0.0554,-0.6335,-0.7881
2366490,0.0527,-0.6443,-0.7906
2366533,0.0416,-0.6740,-0.8278
2366543,0.0385,-0.6740,-0.8464
2366553,0.0371,-0.6718,-0.8549
2366569,0.0353,-0.6637,-0.8679
2366585,0.0345,-0.6521,-0.8738
2366601,0.0353,-0.6388,-0.8713
2366632,0.0392,-0.6190,-0.8402
2366648,0.0435,-0.6080,-0.8275
2366664,0.0492,-0.6003,-0.7977
2366679,0.0565,-0.5972,-0.7637
2366695,0.0657,-0.5994,-0.7277
2366711,0.0760,-0.6075,-0.6921
2366726,0.0875,-0.6215,-0.6592
2366736,0.0934,-0.6305,-0.6443
2366754,0.1053,-0.6520,-0.6188
2366770,0.1167,-0.6768,-0.5995
2366786,0.1266,-0.7031,-0.5864
2366853,0.1368,-0.7925,-0.5792
2366864,0.1346,-0.7968,-0.5812
2366874,0.1320,-0.7997,-0.5833
2366890,0.1255,-0.8022,-0.5874
2366906,0.1180,-0.8011,-0.5909
2366922,0.1106,-0.7976,-0.5939
2366943,0.1003,-0.7903,-0.5969
2366961,0.0946,-0.7849,-0.5986
2366977,0.0901,-0.7798,-0.6007
2366993,0.0870,-0.7750,-0.6042
2367025,0.0854,-0.7662,-0.6188
2367041,0.0858,-0.7617,-0.6302
2367057,0.0870,-0.7592,-0.6368
2367067,0.0883,-0.7540,-0.6510
2367083,0.0887,-0.7484,-0.6659
2367099,0.0880,-0.7426,-0.6802
2367132,0.0812,-0.7301,-0.7040
2367145,0.0784,-0.7271,-0.7085
2367164,0.0682,-0.7181,-0.7189
2367180,0.0645,-0.7122,-0.7233
2367193,0.0565,-0.7091,-0.7249
2367242,0.0315,-0.6893,-0.7240
2367257,0.0234,-0.6833,-0.7195
2367267,0.0198,-0.6808,-0.7166
2367283,0.0131,-0.6774,-0.7096
2367299,0.0081,-0.6764,-0.7017
2367315,0.0049,-0.6782,-0.6936
2367333,0.0037,-0.6826,-0.6862
2367349,0.0042,-0.6891,-0.6803
2367368,0.0070,-0.7003,-0.6757
2367384,0.0083,-0.7040,-0.6754
2367427,0.0170,-0.7206,-0.6847
2367460,0.0197,-0.7222,-0.6913
2367474,0.0199,-0.7216,-0.6912
2367490,0.0203,-0.7197,-0.6877
2367506,0.0211,-0.7188,-0.6785
2367522,0.0233,-0.7201,-0.6625
2367532,0.0278,-0.7251,-0.6393
2367548,0.0354,-0.7347,-0.6090
2367564,0.0405,-0.7415,-0.5724
2367574,0.0538,-0.7593,-0.5520
2367590,0.0713,-0.7828,-0.5081
2367621,0.1053,-0.8276,-0.4363
2367637,0.1326,-0.8621,-0.3861
2367653,0.1633,-0.8986,-0.3356
2367663,0.1973,-0.9364,-0.2858
2367678,0.2151,-0.9558,-0.2617
2367694,0.2517,-0.9951,-0.2159
2367707,0.2877,-1.0331,-0.1750
2367725,0.3213,-1.0670,-0.1417
2367769,0.3896,-1.1102,-0.1216
2367779,0.3942,-1.1047,-0.1349
2367811,0.3893,-1.0410,-0.2537
2367827,0.3743,-0.9865,-0.3562
2367843,0.3523,-0.9193,-0.4858
2367853,0.3391,-0.8816,-0.5588
2367869,0.3093,-0.7986,-0.7148
2367885,0.2750,-0.7083,-0.8733
2367901,0.2363,-0.6144,-1.0209
2367922,0.1938,-0.5214,-1.1472
2367938,0.1494,-0.4331,-1.2469
2367954,0.1060,-0.3531,-1.3191
2367970,0.0668,-0.2843,-1.3656
2368015,-0.0079,-0.1602,-1.3706
2368024,-0.0143,-0.1521,-1.3539
2368035,-0.0190,-0.1477,-1.3331
2368076,-0.0231,-0.1774,-1.1865
2368092,-0.0160,-0.2112,-1.1206
2368110,-0.0046,-0.2552,-1.0580
2368126,0.0098,-0.3074,-1.0023
2368142,0.0259,-0.3647,-0.9550
2368158,0.0420,-0.4242,-0.9164
2368176,0.0564,-0.4823,-0.8853
2368187,0.0675,-0.5360,-0.8599
2368203,0.0745,-0.5826,-0.8383
2368215,0.0764,-0.6029,-0.8284
2368231,0.0770,-0.6368,-0.8091
2368279,0.0634,-0.6921,-0.7506
2368294,0.0580,-0.6997,-0.7311
2368304,0.0559,-0.7024,-0.7216
2368320,0.0533,-0.7069,-0.7031
2368336,0.0531,-0.7115,-0.6857
2368372,0.0588,-0.7246,-0.6526
2368382,0.0642,-0.7333,-0.6373
2368396,0.0674,-0.7379,-0.6304
2368412,0.0745,-0.7473,-0.6177
2368428,0.0820,-0.7559,-0.6073
2368467,0.0991,-0.7688,-0.5889
2368483,0.1034,-0.7700,-0.5836
2368499,0.1053,-0.7690,-0.5790
2368509,0.1053,-0.7679,-0.5770
2368525,0.1041,-0.7640,-0.5745
2368541,0.1016,-0.7588,-0.5742
2368557,0.0988,-0.7529,-0.5774
2368575,0.0962,-0.7473,-0.5837
2368596,0.0927,-0.7407,-0.5986
2368612,0.0901,-0.7379,-0.6111
2368628,0.0870,-0.7360,-0.6246
2368666,0.0791,-0.7347,-0.6517
2368699,0.0680,-0.7367,-0.6732
2368712,0.0613,-0.7382,-0.6805
2368725,0.0576,-0.7394,-0.6857
2368741,0.0503,-0.7397,-0.6874
2368757,0.0433,-0.7404,-0.6898
2368775,0.0345,-0.7407,-0.6921
2368789,0.0323,-0.7407,-0.6929
2368799,0.0288,-0.7407,-0.6947
2368815,0.0276,-0.7404,-0.6973
2368831,0.0261,-0.7401,-0.6991
2368862,0.0264,-0.7380,-0.7092
2368878,0.0273,-0.7362,-0.7167
2368894,0.0286,-0.7336,-0.7260
2368907,0.0293,-0.7302,-0.7369
2368923,0.0291,-0.7257,-0.7495
2368934,0.0284,-0.7230,-0.7562
2368950,0.0261,-0.7163,-0.7697
2368968,0.0221,-0.7081,-0.7820
2369004,0.0048,-0.6842,-0.7977
2369015,0.0006,-0.6798,-0.7970
2369054,-0.0167,-0.6656,-0.7736
2369070,-0.0200,-0.6653,-0.7561
2369086,-0.0203,-0.6680,-0.7356
2369096,-0.0193,-0.6704,-0.7245
2369112,-0.0149,-0.6774,-0.7012
2369128,-0.0081,-0.6866,-0.6770
2369144,0.0011,-0.6980,-0.6528
2369162,0.0122,-0.7111,-0.6288
2369178,0.0255,-0.7251,-0.6042
2369194,0.0406,-0.7400,-0.5779
2369210,0.0577,-0.7561,-0.5479
2369231,0.0767,-0.7738,-0.5133
2369279,0.1458,-0.8403,-0.3872
2369312,0.2051,-0.8920,-0.3054
2369322,0.2377,-0.9181,-0.2695
2369338,0.2542,-0.9437,-0.2367
2369354,0.2864,-0.9564,-0.2211
2369370,0.3168,-0.9813,-0.1914
2369388,0.3562,-1.0168,-0.1516
2369403,0.3674,-1.0276,-0.1403
2369421,0.3953,-1.0525,-0.1180
2369437,0.4093,-1.0594,-0.1184
2369476,0.4242,-1.0398,-0.1733
2369492,0.4233,-1.0084,-0.2327
2369508,0.4164,-0.9604,-0.3140
2369518,0.4039,-0.8965,-0.4161
2369534,0.3961,-0.8595,-0.5366
2369550,0.3782,-0.7788,-0.6024
2369561,0.3591,-0.6940,-0.7415
2369579,0.3412,-0.6108,-0.8837
2369629,0.3027,-0.4187,-1.2388
2369639,0.2983,-0.3992,-1.2782
2369670,0.2834,-0.3574,-1.3688
2369686,0.2764,-0.3535,-1.3778
2369702,0.2686,-0.3563,-1.3676
2369712,0.2642,-0.3593,-1.3566
2369728,0.2537,-0.3663,-1.3247
2369741,0.2404,-0.3733,-1.2831
2369757,0.2240,-0.3789,-1.2354
2369775,0.2053,-0.3834,-1.1852
2369790,0.1852,-0.3879,-1.1357
2369806,0.1649,-0.3936,-1.0894
2369822,0.1458,-0.4011,-1.0477
2369863,0.1071,-0.4340,-0.9651
2369879,0.0962,-0.4526,-0.9384
2369895,0.0878,-0.4740,-0.9127
2369937,0.0759,-0.5367,-0.8459
2369953,0.0742,-0.5640,-0.8170
2369971,0.0740,-0.5909,-0.7872
2369987,0.0756,-0.6172,-0.7577
2370003,0.0786,-0.6422,-0.7289
2370030,0.0858,-0.6766,-0.6881
2370047,0.0918,-0.6973,-0.6631
2370057,0.0951,-0.7069,-0.6514
2370072,0.1017,-0.7249,-0.6298
2370088,0.1080,-0.7413,-0.6111
2370126,0.1198,-0.7765,-0.5770
2370142,0.1218,-0.7878,-0.5685
2370158,0.1223,-0.7975,-0.5625
2370168,0.1221,-0.8016,-0.5604
2370184,0.1205,-0.8083,-0.5581
2370200,0.1174,-0.8125,-0.5579
2370236,0.1068,-0.8123,-0.5626
2370251,0.0995,-0.8076,-0.5674
2370266,0.0913,-0.8000,-0.5741
2370282,0.0824,-0.7900,-0.5829
2370297,0.0731,-0.7782,-0.5938
2370353,0.0398,-0.7323,-0.6458
2370371,0.0311,-0.7219,-0.6615
2370387,0.0232,-0.7140,-0.6759
2370403,0.0165,-0.7087,-0.6886
2370419,0.0115,-0.7063,-0.6996
2370436,0.0082,-0.7063,-0.7091
2370451,0.0062,-0.7080,-0.7169
2370469,0.0049,-0.7107,-0.7225
2370484,0.0032,-0.7135,-0.7256
2370523,-0.0037,-0.7174,-0.7236
2370556,-0.0154,-0.7152,-0.7217
2370566,-0.0221,-0.7136,-0.7223
2370582,-0.0291,-0.7091,-0.7255
2370593,-0.0326,-0.7064,-0.7277
2370609,-0.0397,-0.7003,-0.7328
2370627,-0.0470,-0.6937,-0.7372
2370643,-0.0544,-0.6871,-0.7395
2370659,-0.0618,-0.6812,-0.7388
2370677,-0.0684,-0.6760,-0.7345
2370716,-0.0779,-0.6696,-0.7103
2370732,-0.0782,-0.6698,-0.6965
2370748,-0.0770,-0.6710,-0.6816
2370763,-0.0747,-0.6725,-0.6667
2370778,-0.0719,-0.6733,-0.6531
2370792,-0.0703,-0.6736,-0.6471
2370807,-0.0674,-0.6737,-0.6373
2370818,-0.0645,-0.6737,-0.6306
2370828,-0.0631,-0.6738,-0.6282
2370864,-0.0566,-0.6766,-0.6199
2370882,-0.0516,-0.6813,-0.6125
2370913,-0.0336,-0.7048,-0.5835
2370929,-0.0183,-0.7255,-0.5616
2370945,0.0022,-0.7522,-0.5359
2370955,0.0143,-0.7675,-0.5217
2370971,0.0420,-0.8009,-0.4910
2370987,0.0734,-0.8369,-0.4568
2371003,0.1068,-0.8739,-0.4189
2371024,0.1587,-0.9294,-0.3580
2371040,0.1937,-0.9653,-0.3190
2371056,0.2286,-0.9995,-0.2855
2371072,0.2628,-1.0305,-0.2610
2371082,0.2791,-1.0444,-0.2527
2371093,0.2947,-1.0569,-0.2471
2371104,0.3221,-1.0767,-0.2437
2371120,0.3336,-1.0834,-0.2456
2371135,0.3510,-1.0894,-0.2562
2371191,0.3568,-1.0101,-0.3693
2371212,0.3434,-0.9271,-0.4655
2371220,0.3376,-0.8933,-0.5046
2371233,0.3312,-0.8566,-0.5470
2371248,0.3169,-0.7753,-0.6399
2371261,0.3014,-0.6858,-0.7405
2371271,0.2933,-0.6394,-0.7922
2371286,0.2772,-0.5458,-0.8955
2371297,0.2692,-0.4999,-0.9457
2371312,0.2529,-0.4126,-1.0400
2371328,0.2366,-0.3346,-1.1227
2371376,0.1945,-0.1864,-1.2793
2371392,0.1844,-0.1697,-1.3011
2371402,0.1801,-0.1667,-1.3068
2371413,0.1759,-0.1672,-1.3093
2371429,0.1678,-0.1763,-1.3049
2371472,0.1357,-0.2441,-1.2231
2371482,0.1284,-0.2583,-1.2008
2371500,0.1122,-0.2876,-1.1514
2371516,0.0951,-0.3174,-1.0984
2371532,0.0790,-0.3469,-1.0455
2371571,0.0514,-0.4183,-0.9303
2371587,0.0464,-0.4456,-0.8933
2371603,0.0446,-0.4720,-0.8610
2371613,0.0446,-0.4851,-0.8462
2371629,0.0465,-0.5109,-0.8191
2371645,0.0502,-0.5365,-0.7948
2371661,0.0552,-0.5621,-0.7729
2371679,0.0614,-0.5876,-0.7535
2371695,0.0687,-0.6130,-0.7365
2371709,0.0771,-0.6382,-0.7220
2371724,0.0815,-0.6505,-0.7158
2371763,0.1040,-0.7070,-0.6925
2371801,0.1223,-0.7476,-0.6794
2371811,0.1252,-0.7535,-0.6776
2371827,0.1305,-0.7633,-0.6742
2371842,0.1342,-0.7708,-0.6699
2371858,0.1359,-0.7756,-0.6647
2371876,0.1355,-0.7783,-0.6586
2371892,0.1329,-0.7788,-0.6522
2371910,0.1285,-0.7778,-0.6462
2371926,0.1228,-0.7762,-0.6421
2371965,0.1077,-0.7726,-0.6439
2371981,0.1022,-0.7709,-0.6486
2371997,0.0967,-0.7686,-0.6534
2372007,0.0938,-0.7671,-0.6556
2372018,0.0908,-0.7654,-0.6576
2372045,0.0778,-0.7552,-0.6636
2372054,0.0745,-0.7518,-0.6647
2372080,0.0654,-0.7397,-0.6685
2372123,0.0544,-0.7174,-0.6766
2372157,0.0476,-0.7034,-0.6859
2372173,0.0446,-0.6992,-0.6920
2372189,0.0413,-0.6975,-0.6989
2372199,0.0376,-0.6982,-0.7061
2372215,0.0354,-0.7012,-0.7136
2372230,0.0306,-0.7031,-0.7175
2372245,0.0253,-0.7078,-0.7253
2372263,0.0195,-0.7124,-0.7330
2372278,0.0137,-0.7161,-0.7400
2372290,0.0078,-0.7183,-0.7456
2372306,0.0021,-0.7190,-0.7491
2372324,-0.0035,-0.7183,-0.7505
2372335,-0.0061,-0.7174,-0.7505
2372351,-0.0107,-0.7146,-0.7489
2372362,-0.0128,-0.7107,-0.7462
2372378,-0.0161,-0.7084,-0.7446
2372426,-0.0234,-0.6910,-0.7346
2372461,-0.0306,-0.6761,-0.7241
2372471,-0.0323,-0.6733,-0.7213
2372487,-0.0359,-0.6678,-0.7144
2372503,-0.0389,-0.6630,-0.7048
2372519,-0.0409,-0.6593,-0.6912
2372572,-0.0341,-0.6672,-0.6091
2372588,-0.0244,-0.6807,-0.5653
2372598,-0.0177,-0.6901,-0.5406
2372614,0.0004,-0.7142,-0.4874
2372630,0.0249,-0.7451,-0.4310
2372646,0.0562,-0.7814,-0.3740
2372664,0.0934,-0.8209,-0.3181
2372680,0.1355,-0.8617,-0.2644
2372691,0.1809,-0.9019,-0.2136
2372707,0.2283,-0.9397,-0.1667
2372725,0.2767,-0.9747,-0.1252
2372768,0.3958,-1.0497,-0.0592
2372807,0.4926,-1.0958,-0.0759
2372820,0.5175,-1.1002,-0.1128
2372836,0.5258,-1.0986,-0.1698
2372853,0.5336,-1.0742,-0.2479
2372869,0.5287,-1.0376,-0.3459
2372885,0.5104,-1.0121,-0.4597
2372901,0.4788,-0.9457,-0.5206
2372919,0.4099,-0.8118,-0.7111
2372935,0.3545,-0.7067,-0.8384
2372945,0.3253,-0.6519,-0.9006
2372961,0.2661,-0.5413,-1.0192
2372977,0.2083,-0.4341,-1.1262
2373008,0.1060,-0.2477,-1.2900
2373024,0.0844,-0.1781,-1.3419
2373035,0.0464,-0.1445,-1.3600
2373071,-0.0050,-0.0630,-1.3842
2373081,-0.0123,-0.0525,-1.3799
2373097,-0.0199,-0.0428,-1.3616
2373113,-0.0188,-0.0470,-1.3325
2373129,-0.0106,-0.0636,-1.2947
2373173,0.0369,-0.1719,-1.1500
2373189,0.0549,-0.2196,-1.1012
2373205,0.0714,-0.2682,-1.0563
2373215,0.0787,-0.2919,-1.0356
2373230,0.0902,-0.3365,-0.9978
2373244,0.0941,-0.3571,-0.9803
2373260,0.0980,-0.3942,-0.9480
2373277,0.0962,-0.4261,-0.9180
2373293,0.0887,-0.4537,-0.8894
2373309,0.0762,-0.4788,-0.8616
2373323,0.0603,-0.5031,-0.8345
2373341,0.0431,-0.5284,-0.8083
2373377,0.0079,-0.6003,-0.7506
2373393,0.0017,-0.6315,-0.7321
2373441,0.0225,-0.7264,-0.6941
2373457,0.0306,-0.7422,-0.6576
2373467,0.0493,-0.7733,-0.6777
2373483,0.0692,-0.8030,-0.6649
2373499,0.0892,-0.8307,-0.6497
2373514,0.0990,-0.8439,-0.6410
2373532,0.1265,-0.8804,-0.6102
2373548,0.1423,-0.9023,-0.5862
2373558,0.1492,-0.9126,-0.5732
2373569,0.1552,-0.9221,-0.5599
2373585,0.1648,-0.9387,-0.5328
2373616,0.1743,-0.9581,-0.4823
2373632,0.1748,-0.9600,-0.4617
2373648,0.1727,-0.9570,-0.4456
2373686,0.1609,-0.9089,-0.4281
2373702,0.1517,-0.9272,-0.4288
2373720,0.1344,-0.9034,-0.4387
2373736,0.1207,-0.8857,-0.4506
2373751,0.1134,-0.8768,-0.4576
2373765,0.0981,-0.8594,-0.4731
2373811,0.0509,-0.8176,-0.5176
2373827,0.0370,-0.8090,-0.5291
2373840,0.0308,-0.8058,-0.5339
2373850,0.0201,-0.8019,-0.5422
2373866,0.0159,-0.8010,-0.5485
2373881,0.0095,-0.8015,-0.5509
2373897,0.0059,-0.8040,-0.5544
2373908,0.0050,-0.8075,-0.5568
2373918,0.0055,-0.8094,-0.5576
2373934,0.0083,-0.8131,-0.5596
2373950,0.0133,-0.8158,-0.5626
2373983,0.0293,-0.8153,-0.5753
2374017,0.0498,-0.8024,-0.5985
2374033,0.0593,-0.7891,-0.6119
2374060,0.0681,-0.7599,-0.6296
2374077,0.0687,-0.7362,-0.6384
2374093,0.0649,-0.7119,-0.6449
2374109,0.0577,-0.6901,-0.6497
2374125,0.0481,-0.6730,-0.6537
2374135,0.0425,-0.6666,-0.6558
2374151,0.0300,-0.6583,-0.6602
2374167,0.0162,-0.6556,-0.6653
2374183,0.0011,-0.6573,-0.6711
2374194,-0.0146,-0.6621,-0.6779
2374231,-0.0450,-0.6750,-0.6945
2374246,-0.0580,-0.6803,-0.7039
2374286,-0.0757,-0.6849,-0.7251
2374296,-0.0759,-0.6852,-0.7283
2374311,-0.0732,-0.6862,-0.7325
2374326,-0.0668,-0.6884,-0.7339
2374342,-0.0575,-0.6919,-0.7322
2374355,-0.0525,-0.6942,-0.7303
2374365,-0.0424,-0.6995,-0.7251
2374380,-0.0376,-0.7023,-0.7219
2374396,-0.0294,-0.7079,-0.7145
2374407,-0.0232,-0.7130,-0.7064
2374423,-0.0189,-0.7173,-0.6980
2374471,-0.0156,-0.7242,-0.6754
2374487,-0.0157,-0.7247,-0.6699
2374500,-0.0155,-0.7258,-0.6676
2374516,-0.0144,-0.7271,-0.6642
2374532,-0.0122,-0.7285,-0.6621
2374548,-0.0089,-0.7301,-0.6613
2374558,-0.0068,-0.7311,-0.6614
2374594,0.0063,-0.7363,-0.6637
2374612,0.0120,-0.7385,-0.6649
2374643,0.0210,-0.7416,-0.6656
2374658,0.0226,-0.7419,-0.6654
2374676,0.0255,-0.7424,-0.6627
2374691,0.0259,-0.7424,-0.6614
2374707,0.0259,-0.7423,-0.6581
2374723,0.0250,-0.7426,-0.6542
2374739,0.0239,-0.7430,-0.6503
2374749,0.0229,-0.7435,-0.6467
2374765,0.0227,-0.7437,-0.6445
2374781,0.0225,-0.7435,-0.6442
2374792,0.0221,-0.7429,-0.6454
2374810,0.0212,-0.7422,-0.6492
2374820,0.0205,-0.7419,-0.6520
2374836,0.0183,-0.7419,-0.6589
2374852,0.0150,-0.7424,-0.6667
2374864,0.0110,-0.7434,-0.6742
2374920,-0.0010,-0.7444,-0.6857
2374938,-0.0049,-0.7430,-0.6829
2374954,-0.0066,-0.7419,-0.6777
2374970,-0.0073,-0.7412,-0.6707
2374985,-0.0072,-0.7410,-0.6666
2375003,-0.0054,-0.7413,-0.6538
2375021,-0.0032,-0.7423,-0.6455
2375037,-0.0005,-0.7438,-0.6382
2375053,0.0021,-0.7455,-0.6326
2375092,0.0068,-0.7493,-0.6277
2375108,0.0072,-0.7495,-0.6295
2375124,0.0076,-0.7494,-0.6311
2375137,0.0072,-0.7483,-0.6359
2375153,0.0063,-0.7461,-0.6421
2375169,0.0052,-0.7433,-0.6495
2375205,0.0022,-0.7365,-0.6661
2375215,0.0005,-0.7328,-0.6743
2375225,-0.0004,-0.7311,-0.6782
2375238,-0.0011,-0.7295,-0.6819
2375253,-0.0026,-0.7266,-0.6884
2375269,-0.0037,-0.7242,-0.6931
2375302,-0.0048,-0.7218,-0.6969
2375318,-0.0045,-0.7216,-0.6957
2375334,-0.0039,-0.7218,-0.6925
2375344,-0.0035,-0.7222,-0.6903
2375360,-0.0027,-0.7230,-0.6851
2375373,-0.0017,-0.7242,-0.6792
2375389,-0.0007,-0.7256,-0.6731
2375407,0.0001,-0.7269,-0.6674
2375422,0.0009,-0.7283,-0.6624
2375433,0.0011,-0.7289,-0.6602
2375449,0.0016,-0.7300,-0.6569
2375465,0.0017,-0.7307,-0.6550
2375513,0.0010,-0.7301,-0.6576
2375556,-0.0006,-0.7272,-0.6659
2375566,-0.0010,-0.7260,-0.6693
2375582,-0.0016,-0.7253,-0.6709
2375598,-0.0022,-0.7244,-0.6737
2375614,-0.0027,-0.7236,-0.6759
2375632,-0.0033,-0.7228,-0.6781
2375642,-0.0034,-0.7227,-0.6786
2375658,-0.0035,-0.7223,-0.6790
2375674,-0.0037,-0.7219,-0.6791
2375685,-0.0035,-0.7218,-0.6791
2375716,-0.0037,-0.7207,-0.6794
2375732,-0.0039,-0.7198,-0.6803
2375748,-0.0043,-0.7188,-0.6816
2375758,-0.0045,-0.7181,-0.6825
2375774,-0.0051,-0.7169,-0.6847
2375790,-0.0057,-0.7155,-0.6874
2375806,-0.0065,-0.7141,-0.6902
2375848,-0.0076,-0.7109,-0.6967
2375859,-0.0077,-0.7104,-0.6976
2375875,-0.0078,-0.7098,-0.6991
2375911,-0.0074,-0.7091,-0.6993
2375925,-0.0073,-0.7091,-0.6989
2375941,-0.0070,-0.7092,-0.6975
2375951,-0.0065,-0.7094,-0.6957
2375962,-0.0061,-0.7095,-0.6947
2375978,-0.0056,-0.7097,-0.6925
2375994,-0.0050,-0.7098,-0.6904
2376012,-0.0046,-0.7098,-0.6885
2376028,-0.0044,-0.7098,-0.6871
2376044,-0.0045,-0.7096,-0.6862
2376073,-0.0054,-0.7090,-0.6859
2376108,-0.0063,-0.7086,-0.6881
2376151,-0.0070,-0.7085,-0.6929
2376161,-0.0071,-0.7084,-0.6940
2376177,-0.0073,-0.7083,-0.6959
2376193,-0.0077,-0.7080,-0.6978
2376209,-0.0081,-0.7078,-0.6992
2376230,-0.0085,-0.7073,-0.7008
2376238,-0.0087,-0.7070,-0.7012
2376251,-0.0088,-0.7069,-0.7014
2376265,-0.0089,-0.7065,-0.7018
2376281,-0.0089,-0.7063,-0.7020
2376315,-0.0087,-0.7059,-0.7020
2376331,-0.0085,-0.7058,-0.7019
2376347,-0.0087,-0.7056,-0.7019
2376357,-0.0087,-0.7054,-0.7019
2376373,-0.0089,-0.7051,-0.7019
2376389,-0.0090,-0.7048,-0.7019
2376402,-0.0093,-0.7045,-0.7020
2376420,-0.0096,-0.7041,-0.7020
2376452,-0.0100,-0.7034,-0.7023
2376471,-0.0103,-0.7031,-0.7024
2376519,-0.0107,-0.7028,-0.7026
2376535,-0.0106,-0.7025,-0.7028
2376545,-0.0105,-0.7023,-0.7028
2376561,-0.0103,-0.7018,-0.7028
2376572,-0.0099,-0.7012,-0.7028
2376587,-0.0098,-0.7008,-0.7028
2376603,-0.0099,-0.7000,-0.7029
2376613,-0.0101,-0.6990,-0.7030
2376629,-0.0106,-0.6978,-0.7035
2376644,-0.0109,-0.6971,-0.7039
2376660,-0.0114,-0.6958,-0.7048
2376701,-0.0127,-0.6923,-0.7085
2376717,-0.0132,-0.6908,-0.7103
2376760,-0.0144,-0.6871,-0.7144
2376770,-0.0145,-0.6866,-0.7148
2376786,-0.0146,-0.6860,-0.7153
2376802,-0.0146,-0.6854,-0.7156
2376818,-0.0145,-0.6852,-0.7156
2376836,-0.0143,-0.6851,-0.7156
2376852,-0.0139,-0.6852,-0.7153
2376863,-0.0138,-0.6853,-0.7153
2376881,-0.0134,-0.6854,-0.7151
2376920,-0.0131,-0.6854,-0.7147
2376932,-0.0131,-0.6852,-0.7147
2376948,-0.0132,-0.6849,-0.7148
2376966,-0.0134,-0.6846,-0.7150
2376982,-0.0137,-0.6842,-0.7151
2376998,-0.0138,-0.6838,-0.7152
2377014,-0.0140,-0.6835,-0.7152
2377032,-0.0143,-0.6832,-0.7152
2377065,-0.0145,-0.6830,-0.7148
2377083,-0.0144,-0.6832,-0.7144
2377114,-0.0137,-0.6840,-0.7133
2377130,-0.0133,-0.6844,-0.7126
2377146,-0.0129,-0.6847,-0.7123
2377159,-0.0129,-0.6847,-0.7122
2377175,-0.0128,-0.6844,-0.7122
2377191,-0.0131,-0.6840,-0.7126
2377207,-0.0134,-0.6833,-0.7135
2377218,-0.0140,-0.6825,-0.7147
2377226,-0.0143,-0.6820,-0.7156
2377240,-0.0145,-0.6815,-0.7163
2377255,-0.0150,-0.6807,-0.7180
2377271,-0.0153,-0.6799,-0.7196
2377281,-0.0155,-0.6796,-0.7205
2377291,-0.0157,-0.6791,-0.7218
2377306,-0.0157,-0.6788,-0.7224
2377322,-0.0159,-0.6786,-0.7233
2377338,-0.0159,-0.6783,-0.7235
2377396,-0.0164,-0.6777,-0.7206
2377405,-0.0167,-0.6775,-0.7192
2377421,-0.0170,-0.6774,-0.7181
2377433,-0.0173,-0.6772,-0.7178
2377448,-0.0176,-0.6772,-0.7175
2377464,-0.0177,-0.6772,-0.7180
2377482,-0.0178,-0.6772,-0.7194
2377493,-0.0178,-0.6772,-0.7203
2377509,-0.0177,-0.6772,-0.7227
2377525,-0.0177,-0.6771,-0.7252
2377580,-0.0187,-0.6753,-0.7323
2377596,-0.0192,-0.6747,-0.7328
2377606,-0.0193,-0.6743,-0.7328
2377622,-0.0195,-0.6740,-0.7322
2377638,-0.0197,-0.6738,-0.7310
2377678,-0.0193,-0.6741,-0.7267
