sys_ms,acc_x,acc_y,acc_z
32753,0.5023,-0.6989,0.5322
32857,0.5020,-0.6986,0.5327
32874,0.5017,-0.6985,0.5328
32897,0.5016,-0.6985,0.5330
32919,0.5012,-0.6985,0.5332
32936,0.5011,-0.6985,0.5332
32958,0.5009,-0.6985,0.5333
32976,0.5007,-0.6985,0.5334
33016,0.5004,-0.6986,0.5337
33038,0.5000,-0.6986,0.5337
33065,0.4999,-0.6986,0.5338
33087,0.4996,-0.6987,0.5338
33108,0.4995,-0.6987,0.5339
33125,0.4994,-0.6989,0.5339
33147,0.4994,-0.6989,0.5339
33171,0.4993,-0.6991,0.5338
33206,0.4994,-0.6995,0.5338
33224,0.4995,-0.6996,0.5337
33248,0.5000,-0.7000,0.5333
33270,0.5005,-0.7000,0.5331
33293,0.5011,-0.7000,0.5326
33310,0.5018,-0.6996,0.5320
33332,0.5034,-0.6982,0.5304
33355,0.5042,-0.6974,0.5293
33372,0.5045,-0.6965,0.5280
33408,0.5032,-0.6959,0.5237
33431,0.4983,-0.6985,0.5165
33448,0.4946,-0.7008,0.5120
33471,0.4906,-0.7030,0.5071
33493,0.4873,-0.7041,0.5023
33510,0.4854,-0.7030,0.4984
33531,0.4872,-0.6904,0.4948
33552,0.4915,-0.6776,0.4958
33576,0.4979,-0.6598,0.4990
33593,0.5172,-0.6082,0.5107
33615,0.5298,-0.5743,0.5189
33663,0.5753,-0.4481,0.5525
33684,0.5916,-0.4012,0.5663
33708,0.6234,-0.3080,0.5961
33730,0.6384,-0.2643,0.6116
33753,0.6522,-0.2244,0.6272
33770,0.6646,-0.1892,0.6431
33788,0.6750,-0.1595,0.6588
33810,0.6896,-0.1176,0.6901
33870,0.6895,-0.0929,0.7378
33895,0.6731,-0.0929,0.7705
33918,0.6605,-0.0951,0.7866
33940,0.6288,-0.1002,0.8174
33957,0.6104,-0.1021,0.8318
33984,0.5908,-0.1034,0.8452
34002,0.5707,-0.1046,0.8577
34055,0.4901,-0.1191,0.8953
34074,0.4716,-0.1265,0.9014
34091,0.4543,-0.1350,0.9062
34111,0.4386,-0.1447,0.9098
34133,0.4244,-0.1552,0.9122
34150,0.4122,-0.1665,0.9136
34172,0.3931,-0.1904,0.9135
34197,0.3864,-0.2026,0.9124
34238,0.3761,-0.2374,0.9058
34261,0.3756,-0.2479,0.9031
34282,0.3765,-0.2576,0.9001
34304,0.3810,-0.2739,0.8944
34327,0.3844,-0.2806,0.8917
34344,0.3883,-0.2861,0.8892
34366,0.3927,-0.2908,0.8868
34388,0.4017,-0.2968,0.8832
34431,0.4105,-0.2990,0.8806
34454,0.4183,-0.2982,0.8793
34471,0.4218,-0.2969,0.8790
34494,0.4246,-0.2952,0.8790
34516,0.4291,-0.2906,0.8796
34533,0.4305,-0.2881,0.8802
34556,0.4316,-0.2855,0.8809
34590,0.4326,-0.2803,0.8824
34626,0.4323,-0.2756,0.8842
34648,0.4308,-0.2716,0.8856
34665,0.4299,-0.2700,0.8864
34688,0.4288,-0.2687,0.8870
34710,0.4276,-0.2676,0.8876
34727,0.4265,-0.2668,0.8881
34749,0.4241,-0.2660,0.8887
34768,0.4231,-0.2659,0.8889
34798,0.4211,-0.2661,0.8890
34816,0.4203,-0.2665,0.8890
34839,0.4196,-0.2670,0.8890
34896,0.4180,-0.2694,0.8884
34921,0.4178,-0.2700,0.8883
34944,0.4178,-0.2712,0.8879
34967,0.4180,-0.2719,0.8877
34991,0.4182,-0.2723,0.8876
35013,0.4187,-0.2732,0.8873
35035,0.4189,-0.2734,0.8872
35079,0.4199,-0.2740,0.8871
35100,0.4202,-0.2742,0.8871
35117,0.4204,-0.2743,0.8871
35138,0.4207,-0.2743,0.8872
35158,0.4210,-0.2744,0.8873
35175,0.4213,-0.2745,0.8873
35198,0.4213,-0.2747,0.8875
35216,0.4214,-0.2747,0.8875
35234,0.4215,-0.2748,0.8876
35267,0.4215,-0.2749,0.8877
35290,0.4215,-0.2750,0.8877
35307,0.4214,-0.2751,0.8878
35330,0.4214,-0.2751,0.8878
35352,0.4213,-0.2751,0.8878
35369,0.4211,-0.2751,0.8878
35391,0.4210,-0.2750,0.8878
35414,0.4209,-0.2749,0.8878
35457,0.4207,-0.2745,0.8878
35480,0.4207,-0.2743,0.8878
35497,0.4205,-0.2742,0.8878
35517,0.4205,-0.2739,0.8878
35539,0.4204,-0.2734,0.8877
35564,0.4204,-0.2732,0.8877
35586,0.4204,-0.2728,0.8876
35609,0.4204,-0.2726,0.8876
35635,0.4204,-0.2723,0.8876
35654,0.4204,-0.2721,0.8876
35677,0.4204,-0.2720,0.8875
35709,0.4205,-0.2719,0.8875
35732,0.4205,-0.2717,0.8875
35749,0.4207,-0.2716,0.8875
35771,0.4207,-0.2716,0.8875
35794,0.4207,-0.2716,0.8873
35811,0.4207,-0.2716,0.8873
35828,0.4207,-0.2716,0.8873
35847,0.4207,-0.2717,0.8873
35918,0.4208,-0.2719,0.8872
35938,0.4208,-0.2720,0.8872
35961,0.4208,-0.2720,0.8872
35983,0.4209,-0.2722,0.8871
36000,0.4209,-0.2722,0.8870
36020,0.4209,-0.2723,0.8870
36042,0.4209,-0.2725,0.8868
36100,0.4209,-0.2729,0.8866
36131,0.4209,-0.2732,0.8866
36148,0.4209,-0.2734,0.8866
36170,0.4209,-0.2736,0.8866
36192,0.4208,-0.2738,0.8866
36209,0.4208,-0.2743,0.8866
36231,0.4208,-0.2747,0.8867
36248,0.4208,-0.2749,0.8867
36289,0.4208,-0.2755,0.8868
36312,0.4208,-0.2760,0.8870
36329,0.4208,-0.2761,0.8870
36352,0.4208,-0.2762,0.8870
36374,0.4208,-0.2764,0.8871
36391,0.4208,-0.2762,0.8872
36413,0.4208,-0.2762,0.8873
36438,0.4208,-0.2760,0.8873
36482,0.4208,-0.2754,0.8876
36505,0.4208,-0.2751,0.8876
36522,0.4208,-0.2747,0.8877
36544,0.4208,-0.2743,0.8877
36567,0.4208,-0.2740,0.8877
36584,0.4208,-0.2738,0.8877
36606,0.4209,-0.2733,0.8876
36629,0.4209,-0.2732,0.8875
36652,0.4209,-0.2729,0.8875
36669,0.4209,-0.2727,0.8873
36691,0.4210,-0.2725,0.8872
36732,0.4210,-0.2722,0.8871
36753,0.4211,-0.2721,0.8870
36781,0.4211,-0.2720,0.8868
36804,0.4210,-0.2720,0.8868
36827,0.4210,-0.2720,0.8868
36849,0.4210,-0.2720,0.8868
36866,0.4210,-0.2720,0.8868
36888,0.4209,-0.2720,0.8870
36938,0.4209,-0.2720,0.8871
36963,0.4208,-0.2720,0.8872
36985,0.4208,-0.2721,0.8873
37002,0.4207,-0.2721,0.8875
37028,0.4207,-0.2721,0.8875
37054,0.4207,-0.2722,0.8876
37077,0.4207,-0.2722,0.8876
37122,0.4207,-0.2725,0.8877
37145,0.4207,-0.2725,0.8876
37162,0.4207,-0.2727,0.8876
37183,0.4208,-0.2731,0.8876
37206,0.4208,-0.2732,0.8875
37223,0.4208,-0.2736,0.8875
37245,0.4208,-0.2738,0.8873
37267,0.4209,-0.2744,0.8873
37303,0.4209,-0.2749,0.8872
37326,0.4209,-0.2751,0.8872
37343,0.4209,-0.2754,0.8871
37363,0.4209,-0.2756,0.8871
37386,0.4209,-0.2756,0.8871
37410,0.4209,-0.2756,0.8871
37432,0.4209,-0.2755,0.8871
37455,0.4209,-0.2754,0.8871
37472,0.4209,-0.2751,0.8871
37489,0.4209,-0.2749,0.8871
37511,0.4208,-0.2744,0.8871
37559,0.4207,-0.2734,0.8871
37581,0.4207,-0.2731,0.8871
37598,0.4207,-0.2728,0.8871
37621,0.4205,-0.2726,0.8871
37643,0.4205,-0.2721,0.8871
37669,0.4204,-0.2720,0.8872
37692,0.4204,-0.2717,0.8872
37715,0.4204,-0.2716,0.8873
37747,0.4203,-0.2716,0.8875
37770,0.4203,-0.2716,0.8875
37787,0.4203,-0.2716,0.8875
37809,0.4203,-0.2719,0.8876
37832,0.4203,-0.2721,0.8876
37849,0.4203,-0.2722,0.8876
37871,0.4203,-0.2726,0.8877
37888,0.4203,-0.2727,0.8877
37952,0.4203,-0.2731,0.8876
37975,0.4203,-0.2732,0.8876
37998,0.4203,-0.2732,0.8875
38019,0.4204,-0.2732,0.8875
38040,0.4204,-0.2731,0.8875
38062,0.4204,-0.2731,0.8873
38081,0.4204,-0.2731,0.8873
38098,0.4204,-0.2729,0.8873
38145,0.4204,-0.2728,0.8873
38169,0.4205,-0.2728,0.8873
38190,0.4205,-0.2728,0.8873
38213,0.4205,-0.2729,0.8873
38237,0.4207,-0.2732,0.8873
38260,0.4207,-0.2734,0.8873
38278,0.4207,-0.2737,0.8873
38296,0.4208,-0.2738,0.8873
38329,0.4208,-0.2743,0.8873
38352,0.4209,-0.2747,0.8873
38369,0.4209,-0.2748,0.8873
38392,0.4210,-0.2749,0.8873
38414,0.4210,-0.2750,0.8872
38431,0.4211,-0.2751,0.8872
38453,0.4211,-0.2751,0.8872
38476,0.4211,-0.2750,0.8871
38493,0.4211,-0.2750,0.8871
38510,0.4211,-0.2749,0.8871
38532,0.4211,-0.2747,0.8870
38581,0.4210,-0.2740,0.8870
38605,0.4209,-0.2738,0.8870
38622,0.4209,-0.2736,0.8870
38644,0.4208,-0.2734,0.8870
38666,0.4207,-0.2729,0.8870
38683,0.4207,-0.2728,0.8870
38707,0.4205,-0.2727,0.8870
38729,0.4204,-0.2725,0.8871
38770,0.4204,-0.2723,0.8872
38797,0.4203,-0.2723,0.8873
38819,0.4203,-0.2723,0.8873
38842,0.4203,-0.2725,0.8875
38864,0.4203,-0.2725,0.8876
38881,0.4203,-0.2726,0.8876
38906,0.4203,-0.2726,0.8876
38924,0.4203,-0.2728,0.8877
38988,0.4204,-0.2729,0.8877
39014,0.4205,-0.2729,0.8877
39034,0.4205,-0.2729,0.8876
39055,0.4207,-0.2729,0.8876
39076,0.4208,-0.2729,0.8876
39099,0.4208,-0.2729,0.8875
39123,0.4209,-0.2729,0.8873
39179,0.4210,-0.2731,0.8872
39213,0.4210,-0.2733,0.8872
39235,0.4210,-0.2734,0.8871
39257,0.4210,-0.2738,0.8871
39274,0.4210,-0.2739,0.8870
39297,0.4210,-0.2742,0.8870
39319,0.4210,-0.2745,0.8870
39355,0.4210,-0.2748,0.8870
39378,0.4210,-0.2749,0.8870
39395,0.4210,-0.2750,0.8870
39417,0.4210,-0.2750,0.8870
39439,0.4210,-0.2750,0.8871
39456,0.4210,-0.2750,0.8871
39479,0.4210,-0.2749,0.8871
39501,0.4210,-0.2747,0.8872
39519,0.4210,-0.2745,0.8872
39538,0.4210,-0.2744,0.8873
39561,0.4210,-0.2742,0.8873
39583,0.4210,-0.2737,0.8873
39617,0.4210,-0.2733,0.8873
39640,0.4210,-0.2731,0.8873
39664,0.4210,-0.2729,0.8873
39686,0.4210,-0.2726,0.8875
39709,0.4210,-0.2725,0.8875
39726,0.4210,-0.2723,0.8875
39743,0.4210,-0.2722,0.8875
39765,0.4210,-0.2720,0.8875
39806,0.4210,-0.2719,0.8875
39827,0.4209,-0.2719,0.8876
39844,0.4209,-0.2719,0.8876
39866,0.4209,-0.2719,0.8876
39889,0.4208,-0.2720,0.8876
39906,0.4208,-0.2720,0.8876
39928,0.4208,-0.2722,0.8876
39945,0.4208,-0.2722,0.8876
40009,0.4207,-0.2725,0.8876
40031,0.4207,-0.2726,0.8876
40053,0.4207,-0.2727,0.8876
40073,0.4207,-0.2727,0.8876
40097,0.4207,-0.2727,0.8875
40131,0.4208,-0.2728,0.8875
40148,0.4208,-0.2728,0.8875
40201,0.4208,-0.2732,0.8875
40228,0.4209,-0.2734,0.8876
40250,0.4209,-0.2737,0.8876
40272,0.4209,-0.2738,0.8876
40289,0.4209,-0.2740,0.8876
40311,0.4209,-0.2744,0.8876
40334,0.4209,-0.2747,0.8876
40377,0.4209,-0.2749,0.8877
40400,0.4209,-0.2750,0.8877
40417,0.4208,-0.2750,0.8877
40437,0.4208,-0.2750,0.8877
40459,0.4208,-0.2749,0.8877
40484,0.4207,-0.2748,0.8877
40506,0.4207,-0.2745,0.8877
40529,0.4205,-0.2743,0.8877
40546,0.4205,-0.2742,0.8878
40563,0.4205,-0.2739,0.8878
40585,0.4204,-0.2738,0.8878
40632,0.4203,-0.2731,0.8879
40655,0.4203,-0.2727,0.8881
40672,0.4203,-0.2725,0.8881
40695,0.4203,-0.2722,0.8881
40717,0.4203,-0.2721,0.8881
40745,0.4203,-0.2717,0.8881
40762,0.4203,-0.2716,0.8881
40784,0.4203,-0.2714,0.8881
40836,0.4204,-0.2714,0.8879
40859,0.4204,-0.2714,0.8879
40881,0.4204,-0.2715,0.8878
40903,0.4205,-0.2717,0.8877
40926,0.4205,-0.2719,0.8877
40943,0.4205,-0.2720,0.8876
40968,0.4205,-0.2723,0.8875
40991,0.4205,-0.2726,0.8875
41047,0.4205,-0.2731,0.8875
41068,0.4205,-0.2732,0.8875
41089,0.4205,-0.2732,0.8875
41109,0.4205,-0.2732,0.8876
41132,0.4205,-0.2732,0.8876
41155,0.4205,-0.2732,0.8877
41172,0.4205,-0.2733,0.8877
41232,0.4205,-0.2736,0.8878
41255,0.4205,-0.2736,0.8878
41278,0.4205,-0.2738,0.8878
41301,0.4205,-0.2739,0.8877
41323,0.4205,-0.2740,0.8877
41342,0.4205,-0.2742,0.8877
41367,0.4205,-0.2744,0.8876
41385,0.4205,-0.2745,0.8876
41418,0.4205,-0.2745,0.8875
41441,0.4205,-0.2745,0.8875
41458,0.4205,-0.2744,0.8875
41480,0.4205,-0.2744,0.8875
41503,0.4205,-0.2743,0.8875
41520,0.4205,-0.2743,0.8875
41542,0.4207,-0.2740,0.8876
41565,0.4207,-0.2739,0.8876
41607,0.4207,-0.2736,0.8877
41630,0.4207,-0.2733,0.8877
41654,0.4207,-0.2732,0.8877
41677,0.4207,-0.2728,0.8878
41700,0.4207,-0.2727,0.8878
41717,0.4207,-0.2725,0.8878
41739,0.4207,-0.2722,0.8878
41762,0.4207,-0.2721,0.8878
41786,0.4207,-0.2720,0.8878
41808,0.4205,-0.2719,0.8877
41857,0.4205,-0.2717,0.8877
41880,0.4205,-0.2717,0.8876
41897,0.4205,-0.2717,0.8876
41919,0.4204,-0.2717,0.8876
41941,0.4204,-0.2717,0.8876
41958,0.4204,-0.2719,0.8876
41976,0.4204,-0.2720,0.8876
41994,0.4204,-0.2720,0.8876
42015,0.4204,-0.2721,0.8876
42064,0.4204,-0.2723,0.8877
42088,0.4204,-0.2726,0.8877
42109,0.4204,-0.2726,0.8877
42131,0.4204,-0.2727,0.8878
42155,0.4205,-0.2731,0.8878
42178,0.4205,-0.2732,0.8879
42195,0.4205,-0.2734,0.8879
42255,0.4208,-0.2743,0.8879
42280,0.4208,-0.2747,0.8878
42299,0.4208,-0.2748,0.8878
42322,0.4209,-0.2749,0.8878
42344,0.4209,-0.2750,0.8877
42361,0.4209,-0.2750,0.8877
42383,0.4209,-0.2751,0.8876
42400,0.4209,-0.2751,0.8876
42441,0.4209,-0.2750,0.8875
42464,0.4209,-0.2748,0.8875
42481,0.4209,-0.2747,0.8873
42504,0.4209,-0.2745,0.8873
42526,0.4208,-0.2744,0.8873
42543,0.4208,-0.2740,0.8875
42565,0.4207,-0.2739,0.8875
42583,0.4207,-0.2737,0.8875
42634,0.4205,-0.2732,0.8876
42657,0.4204,-0.2731,0.8876
42674,0.4204,-0.2729,0.8876
42696,0.4204,-0.2727,0.8876
42719,0.4204,-0.2726,0.8876
42736,0.4204,-0.2725,0.8876
42758,0.4204,-0.2723,0.8876
42780,0.4204,-0.2723,0.8876
42797,0.4204,-0.2722,0.8876
42820,0.4204,-0.2722,0.8876
42853,0.4205,-0.2721,0.8876
42890,0.4205,-0.2721,0.8876
42910,0.4205,-0.2721,0.8876
42927,0.4205,-0.2721,0.8876
42950,0.4205,-0.2721,0.8875
42972,0.4205,-0.2721,0.8875
42989,0.4205,-0.2722,0.8875
43012,0.4204,-0.2722,0.8875
43034,0.4204,-0.2722,0.8875
43091,0.4204,-0.2725,0.8875
43113,0.4204,-0.2726,0.8875
43135,0.4204,-0.2727,0.8875
43157,0.4204,-0.2728,0.8876
43174,0.4204,-0.2729,0.8876
43197,0.4204,-0.2732,0.8876
43215,0.4205,-0.2733,0.8876
43233,0.4205,-0.2736,0.8876
43278,0.4205,-0.2743,0.8876
43302,0.4207,-0.2748,0.8876
43324,0.4207,-0.2749,0.8876
43346,0.4207,-0.2751,0.8876
43372,0.4208,-0.2754,0.8875
43395,0.4208,-0.2755,0.8875
43417,0.4208,-0.2756,0.8875
43460,0.4208,-0.2755,0.8876
43483,0.4208,-0.2753,0.8876
43500,0.4208,-0.2751,0.8876
43521,0.4208,-0.2749,0.8877
43543,0.4208,-0.2748,0.8877
43567,0.4207,-0.2743,0.8877
43590,0.4207,-0.2740,0.8877
43612,0.4207,-0.2736,0.8877
43655,0.4207,-0.2732,0.8877
43678,0.4207,-0.2728,0.8876
43695,0.4207,-0.2726,0.8876
43717,0.4205,-0.2725,0.8876
43740,0.4205,-0.2723,0.8875
43757,0.4205,-0.2723,0.8875
43779,0.4205,-0.2721,0.8875
43802,0.4205,-0.2721,0.8873
43819,0.4204,-0.2720,0.8873
43837,0.4204,-0.2720,0.8873
43859,0.4204,-0.2719,0.8873
43881,0.4204,-0.2719,0.8873
43915,0.4203,-0.2719,0.8873
43938,0.4203,-0.2719,0.8873
43955,0.4203,-0.2719,0.8875
43977,0.4203,-0.2720,0.8875
44000,0.4204,-0.2720,0.8875
44017,0.4204,-0.2721,0.8875
44039,0.4204,-0.2721,0.8875
44059,0.4204,-0.2722,0.8875
44123,0.4205,-0.2722,0.8873
44148,0.4205,-0.2722,0.8873
44170,0.4207,-0.2723,0.8873
44192,0.4207,-0.2726,0.8872
44209,0.4207,-0.2727,0.8872
44232,0.4207,-0.2729,0.8872
44249,0.4207,-0.2732,0.8872
44309,0.4207,-0.2743,0.8872
44332,0.4207,-0.2745,0.8872
44355,0.4207,-0.2749,0.8872
44378,0.4207,-0.2750,0.8872
44402,0.4205,-0.2753,0.8873
44424,0.4205,-0.2753,0.8873
44442,0.4205,-0.2751,0.8873
44460,0.4204,-0.2751,0.8873
44495,0.4204,-0.2749,0.8875
44518,0.4203,-0.2745,0.8875
44535,0.4203,-0.2743,0.8875
44558,0.4203,-0.2742,0.8875
44580,0.4203,-0.2739,0.8875
44597,0.4203,-0.2737,0.8876
44619,0.4202,-0.2733,0.8876
44642,0.4202,-0.2732,0.8876
44685,0.4203,-0.2727,0.8876
44708,0.4203,-0.2726,0.8876
44725,0.4203,-0.2725,0.8876
44745,0.4203,-0.2723,0.8875
44767,0.4203,-0.2722,0.8875
44792,0.4203,-0.2722,0.8875
44814,0.4203,-0.2722,0.8873
44837,0.4204,-0.2722,0.8873
44872,0.4204,-0.2722,0.8872
44895,0.4204,-0.2722,0.8872
44945,0.4205,-0.2722,0.8872
44967,0.4205,-0.2722,0.8872
44984,0.4205,-0.2722,0.8872
45007,0.4207,-0.2722,0.8872
45026,0.4207,-0.2722,0.8873
45043,0.4207,-0.2722,0.8873
45062,0.4208,-0.2721,0.8873
45082,0.4208,-0.2721,0.8875
45105,0.4208,-0.2721,0.8875
45154,0.4208,-0.2722,0.8876
45179,0.4209,-0.2725,0.8876
45202,0.4209,-0.2726,0.8876
45224,0.4209,-0.2731,0.8876
45241,0.4208,-0.2733,0.8875
45265,0.4208,-0.2736,0.8875
45288,0.4208,-0.2739,0.8875
45341,0.4207,-0.2748,0.8873
45361,0.4205,-0.2749,0.8873
45385,0.4205,-0.2750,0.8872
45407,0.4204,-0.2750,0.8872
45432,0.4204,-0.2750,0.8871
45454,0.4203,-0.2749,0.8871
45471,0.4203,-0.2748,0.8870
45521,0.4203,-0.2744,0.8870
45543,0.4202,-0.2743,0.8870
45560,0.4202,-0.2740,0.8870
45583,0.4202,-0.2739,0.8871
45605,0.4202,-0.2736,0.8872
45622,0.4202,-0.2733,0.8872
45645,0.4202,-0.2732,0.8873
45663,0.4202,-0.2729,0.8873
45681,0.4202,-0.2728,0.8875
45713,0.4202,-0.2725,0.8876
45736,0.4202,-0.2722,0.8876
45753,0.4203,-0.2721,0.8876
45776,0.4203,-0.2721,0.8877
45798,0.4203,-0.2720,0.8877
45815,0.4203,-0.2720,0.8877
45837,0.4204,-0.2720,0.8876
45860,0.4204,-0.2721,0.8876
45903,0.4205,-0.2722,0.8876
45925,0.4205,-0.2723,0.8876
45942,0.4205,-0.2725,0.8876
45962,0.4205,-0.2725,0.8876
45984,0.4205,-0.2727,0.8876
46009,0.4205,-0.2727,0.8876
46026,0.4205,-0.2728,0.8876
46045,0.4204,-0.2729,0.8876
46068,0.4204,-0.2729,0.8876
46085,0.4204,-0.2731,0.8876
46108,0.4203,-0.2731,0.8877
46179,0.4202,-0.2733,0.8877
46196,0.4202,-0.2734,0.8877
46219,0.4202,-0.2736,0.8877
46241,0.4202,-0.2737,0.8877
46258,0.4202,-0.2738,0.8877
46276,0.4203,-0.2742,0.8877
46294,0.4203,-0.2743,0.8876
46354,0.4204,-0.2748,0.8876
46379,0.4205,-0.2749,0.8875
46402,0.4205,-0.2750,0.8875
46423,0.4205,-0.2750,0.8875
46447,0.4205,-0.2751,0.8876
46470,0.4205,-0.2751,0.8876
46487,0.4205,-0.2751,0.8877
46535,0.4205,-0.2749,0.8878
46558,0.4205,-0.2745,0.8881
46583,0.4204,-0.2744,0.8881
46606,0.4204,-0.2739,0.8882
46628,0.4204,-0.2737,0.8882
46645,0.4204,-0.2734,0.8882
46668,0.4204,-0.2732,0.8882
46692,0.4204,-0.2728,0.8882
46726,0.4204,-0.2723,0.8882
46749,0.4204,-0.2721,0.8882
46766,0.4204,-0.2720,0.8882
46788,0.4204,-0.2716,0.8881
46811,0.4204,-0.2715,0.8881
46835,0.4204,-0.2715,0.8879
46857,0.4204,-0.2714,0.8879
46883,0.4204,-0.2712,0.8879
46909,0.4204,-0.2712,0.8878
46927,0.4204,-0.2712,0.8878
46949,0.4203,-0.2714,0.8878
46981,0.4203,-0.2715,0.8878
47006,0.4203,-0.2716,0.8878
47029,0.4203,-0.2717,0.8878
47050,0.4202,-0.2720,0.8878
47069,0.4202,-0.2721,0.8878
47086,0.4202,-0.2722,0.8878
47109,0.4202,-0.2723,0.8878
47126,0.4202,-0.2725,0.8877
47190,0.4202,-0.2732,0.8877
47207,0.4202,-0.2733,0.8877
47226,0.4202,-0.2736,0.8877
47248,0.4202,-0.2739,0.8876
47270,0.4203,-0.2742,0.8876
47288,0.4203,-0.2744,0.8876
47310,0.4203,-0.2745,0.8876
47327,0.4204,-0.2747,0.8876
47380,0.4205,-0.2748,0.8873
47405,0.4205,-0.2748,0.8873
47427,0.4205,-0.2747,0.8873
47448,0.4207,-0.2744,0.8872
47465,0.4207,-0.2743,0.8872
47488,0.4207,-0.2740,0.8872
47513,0.4207,-0.2737,0.8871
47556,0.4208,-0.2732,0.8871
47579,0.4208,-0.2728,0.8871
47596,0.4208,-0.2726,0.8871
47619,0.4208,-0.2725,0.8871
47641,0.4208,-0.2722,0.8871
47661,0.4208,-0.2720,0.8872
47684,0.4208,-0.2719,0.8872
47706,0.4208,-0.2719,0.8872
47723,0.4208,-0.2717,0.8872
47740,0.4208,-0.2717,0.8872
47762,0.4208,-0.2716,0.8872
47810,0.4208,-0.2716,0.8873
47831,0.4208,-0.2716,0.8873
47855,0.4208,-0.2716,0.8873
47877,0.4208,-0.2716,0.8875
47900,0.4208,-0.2716,0.8876
47917,0.4208,-0.2716,0.8876
47934,0.4207,-0.2716,0.8877
47955,0.4207,-0.2717,0.8877
47996,0.4205,-0.2719,0.8878
48020,0.4204,-0.2720,0.8878
48042,0.4204,-0.2720,0.8878
48064,0.4204,-0.2721,0.8878
48083,0.4203,-0.2721,0.8878
48100,0.4203,-0.2722,0.8878
48133,0.4203,-0.2723,0.8877
48151,0.4203,-0.2725,0.8877
48200,0.4202,-0.2728,0.8876
48225,0.4203,-0.2732,0.8875
48248,0.4203,-0.2734,0.8875
48270,0.4203,-0.2738,0.8873
48287,0.4204,-0.2739,0.8873
48310,0.4204,-0.2742,0.8872
48332,0.4204,-0.2743,0.8872
48387,0.4207,-0.2744,0.8870
48412,0.4207,-0.2743,0.8870
48432,0.4208,-0.2740,0.8868
48453,0.4208,-0.2739,0.8868
48477,0.4208,-0.2738,0.8868
48499,0.4209,-0.2734,0.8868
48522,0.4209,-0.2733,0.8868
48546,0.4209,-0.2732,0.8868
48563,0.4208,-0.2729,0.8868
48585,0.4208,-0.2728,0.8868
48626,0.4208,-0.2727,0.8868
48649,0.4207,-0.2726,0.8870
48666,0.4207,-0.2725,0.8870
48689,0.4207,-0.2725,0.8870
48711,0.4205,-0.2725,0.8871
48730,0.4205,-0.2725,0.8872
48749,0.4205,-0.2725,0.8872
48766,0.4205,-0.2725,0.8872
48814,0.4204,-0.2725,0.8875
48837,0.4204,-0.2725,0.8875
48854,0.4204,-0.2723,0.8876
48876,0.4204,-0.2723,0.8876
48895,0.4204,-0.2723,0.8877
48925,0.4204,-0.2723,0.8877
48947,0.4204,-0.2723,0.8877
48964,0.4204,-0.2723,0.8877
49004,0.4204,-0.2722,0.8877
49024,0.4204,-0.2721,0.8877
49043,0.4205,-0.2721,0.8876
49066,0.4205,-0.2721,0.8876
49087,0.4205,-0.2721,0.8876
49109,0.4205,-0.2721,0.8876
49126,0.4205,-0.2722,0.8876
49149,0.4207,-0.2723,0.8876
49166,0.4207,-0.2725,0.8876
49223,0.4207,-0.2733,0.8876
49248,0.4207,-0.2736,0.8876
49270,0.4205,-0.2740,0.8876
49292,0.4205,-0.2742,0.8876
49309,0.4205,-0.2744,0.8876
49332,0.4205,-0.2745,0.8876
49349,0.4205,-0.2747,0.8876
49367,0.4204,-0.2747,0.8876
49412,0.4204,-0.2747,0.8876
49437,0.4203,-0.2745,0.8876
49460,0.4203,-0.2744,0.8875
49481,0.4203,-0.2743,0.8875
49505,0.4203,-0.2739,0.8875
49528,0.4203,-0.2738,0.8873
49550,0.4203,-0.2736,0.8873
49593,0.4203,-0.2733,0.8873
49616,0.4203,-0.2732,0.8873
49633,0.4203,-0.2731,0.8875
49657,0.4203,-0.2729,0.8875
49679,0.4203,-0.2728,0.8875
49696,0.4203,-0.2728,0.8875
49718,0.4202,-0.2727,0.8876
49741,0.4202,-0.2727,0.8876
49758,0.4202,-0.2726,0.8877
49775,0.4202,-0.2726,0.8877
49797,0.4202,-0.2726,0.8877
49847,0.4200,-0.2726,0.8877
49869,0.4200,-0.2726,0.8877
49886,0.4200,-0.2726,0.8877
49909,0.4200,-0.2726,0.8877
49931,0.4200,-0.2726,0.8877
49956,0.4200,-0.2726,0.8877
49981,0.4200,-0.2725,0.8878
50002,0.4200,-0.2725,0.8878
50034,0.4200,-0.2725,0.8878
50054,0.4200,-0.2725,0.8878
50076,0.4200,-0.2725,0.8879
50096,0.4202,-0.2725,0.8879
50119,0.4202,-0.2726,0.8879
50143,0.4203,-0.2727,0.8879
50165,0.4203,-0.2728,0.8878
50182,0.4203,-0.2729,0.8878
50247,0.4205,-0.2737,0.8877
50270,0.4207,-0.2738,0.8876
50292,0.4207,-0.2742,0.8875
50315,0.4208,-0.2743,0.8875
50339,0.4208,-0.2744,0.8873
50361,0.4209,-0.2745,0.8873
50386,0.4209,-0.2747,0.8873
50431,0.4209,-0.2747,0.8875
50456,0.4209,-0.2745,0.8876
50479,0.4208,-0.2744,0.8877
50501,0.4208,-0.2743,0.8877
50523,0.4207,-0.2739,0.8879
50546,0.4207,-0.2738,0.8879
50572,0.4207,-0.2734,0.8881
50591,0.4205,-0.2733,0.8881
50614,0.4205,-0.2732,0.8881
50636,0.4205,-0.2728,0.8881
50670,0.4205,-0.2727,0.8879
50693,0.4205,-0.2726,0.8879
50717,0.4205,-0.2726,0.8879
50739,0.4205,-0.2725,0.8878
50762,0.4205,-0.2723,0.8878
50779,0.4205,-0.2723,0.8877
50796,0.4207,-0.2722,0.8877
50818,0.4207,-0.2722,0.8877
50861,0.4207,-0.2721,0.8876
50883,0.4207,-0.2719,0.8876
50911,0.4207,-0.2719,0.8876
50934,0.4207,-0.2717,0.8876
50957,0.4207,-0.2716,0.8877
50979,0.4207,-0.2716,0.8877
51003,0.4207,-0.2715,0.8877
51023,0.4207,-0.2715,0.8877
51055,0.4205,-0.2714,0.8877
51077,0.4205,-0.2714,0.8877
51099,0.4205,-0.2715,0.8878
51122,0.4205,-0.2715,0.8878
51144,0.4204,-0.2716,0.8877
51161,0.4204,-0.2717,0.8877
51189,0.4204,-0.2721,0.8877
51208,0.4204,-0.2723,0.8877
51272,0.4204,-0.2734,0.8875
51291,0.4204,-0.2737,0.8875
51313,0.4205,-0.2742,0.8873
51336,0.4205,-0.2744,0.8873
51353,0.4205,-0.2745,0.8872
51375,0.4205,-0.2747,0.8872
51397,0.4205,-0.2748,0.8871
51452,0.4207,-0.2747,0.8871
51477,0.4207,-0.2743,0.8871
51497,0.4207,-0.2740,0.8871
51520,0.4207,-0.2738,0.8871
51544,0.4207,-0.2733,0.8871
51567,0.4208,-0.2731,0.8872
51589,0.4208,-0.2728,0.8872
51610,0.4208,-0.2723,0.8873
51627,0.4207,-0.2721,0.8873
51650,0.4207,-0.2719,0.8873
51698,0.4207,-0.2714,0.8875
51721,0.4205,-0.2712,0.8875
51738,0.4205,-0.2711,0.8875
51760,0.4204,-0.2711,0.8875
51783,0.4204,-0.2711,0.8875
51801,0.4204,-0.2711,0.8875
51821,0.4203,-0.2711,0.8875
51844,0.4203,-0.2712,0.8875
51866,0.4203,-0.2712,0.8875
51898,0.4203,-0.2715,0.8875
51921,0.4202,-0.2717,0.8876
51940,0.4202,-0.2719,0.8876
51963,0.4202,-0.2720,0.8876
51985,0.4202,-0.2721,0.8877
52002,0.4203,-0.2722,0.8878
52023,0.4203,-0.2723,0.8878
52045,0.4203,-0.2725,0.8878
52091,0.4203,-0.2726,0.8879
52112,0.4203,-0.2727,0.8881
52135,0.4204,-0.2728,0.8881
52158,0.4204,-0.2729,0.8881
52180,0.4204,-0.2731,0.8881
52197,0.4204,-0.2732,0.8881
52219,0.4205,-0.2737,0.8879
52236,0.4205,-0.2739,0.8878
52301,0.4207,-0.2749,0.8876
52326,0.4207,-0.2750,0.8875
52348,0.4208,-0.2751,0.8873
52371,0.4208,-0.2753,0.8872
52395,0.4208,-0.2753,0.8871
52412,0.4209,-0.2751,0.8870
52429,0.4209,-0.2749,0.8870
52489,0.4209,-0.2744,0.8868
52514,0.4209,-0.2739,0.8867
52537,0.4209,-0.2737,0.8867
52559,0.4209,-0.2734,0.8867
52576,0.4209,-0.2733,0.8867
52598,0.4209,-0.2728,0.8866
52621,0.4209,-0.2727,0.8866
52664,0.4208,-0.2722,0.8867
52687,0.4208,-0.2722,0.8867
52704,0.4208,-0.2721,0.8868
52727,0.4207,-0.2720,0.8870
52750,0.4207,-0.2720,0.8871
52767,0.4205,-0.2720,0.8871
52789,0.4205,-0.2720,0.8872
52811,0.4205,-0.2721,0.8875
52828,0.4205,-0.2722,0.8875
52845,0.4204,-0.2722,0.8876
52868,0.4204,-0.2723,0.8876
52926,0.4205,-0.2725,0.8877
52949,0.4205,-0.2725,0.8877
52971,0.4205,-0.2725,0.8877
52993,0.4205,-0.2723,0.8877
53026,0.4207,-0.2723,0.8877
53047,0.4207,-0.2722,0.8877
53067,0.4208,-0.2722,0.8876
53087,0.4208,-0.2721,0.8876
53120,0.4209,-0.2720,0.8875
53142,0.4209,-0.2721,0.8875
53165,0.4209,-0.2721,0.8873
53187,0.4210,-0.2723,0.8873
53210,0.4210,-0.2726,0.8873
53227,0.4210,-0.2728,0.8872
53251,0.4210,-0.2734,0.8872
53273,0.4210,-0.2738,0.8872
53324,0.4210,-0.2747,0.8872
53347,0.4210,-0.2749,0.8872
53369,0.4210,-0.2753,0.8872
53392,0.4210,-0.2754,0.8872
53409,0.4210,-0.2754,0.8872
53431,0.4210,-0.2755,0.8873
53455,0.4210,-0.2753,0.8873
53508,0.4209,-0.2748,0.8875
53533,0.4209,-0.2743,0.8876
53556,0.4209,-0.2740,0.8876
53578,0.4209,-0.2737,0.8877
53595,0.4209,-0.2734,0.8877
53617,0.4208,-0.2728,0.8878
53643,0.4208,-0.2726,0.8878
53686,0.4208,-0.2720,0.8879
53709,0.4207,-0.2719,0.8879
53726,0.4207,-0.2717,0.8879
53748,0.4207,-0.2715,0.8878
53771,0.4207,-0.2715,0.8878
53788,0.4207,-0.2716,0.8878
53810,0.4207,-0.2717,0.8877
53832,0.4207,-0.2719,0.8877
53849,0.4208,-0.2720,0.8877
53866,0.4208,-0.2721,0.8877
53889,0.4208,-0.2722,0.8877
53937,0.4208,-0.2725,0.8876
53958,0.4208,-0.2726,0.8876
53975,0.4208,-0.2726,0.8876
53997,0.4208,-0.2727,0.8876
54017,0.4208,-0.2727,0.8876
54039,0.4208,-0.2726,0.8876
54059,0.4207,-0.2726,0.8876
54076,0.4207,-0.2726,0.8877
54127,0.4205,-0.2725,0.8877
54150,0.4205,-0.2726,0.8877
54167,0.4205,-0.2726,0.8877
54188,0.4205,-0.2726,0.8877
54210,0.4205,-0.2728,0.8877
54227,0.4205,-0.2729,0.8877
54261,0.4207,-0.2732,0.8876
54279,0.4207,-0.2733,0.8876
54328,0.4208,-0.2737,0.8876
54353,0.4209,-0.2738,0.8875
54375,0.4209,-0.2739,0.8875
54398,0.4209,-0.2739,0.8875
54415,0.4209,-0.2740,0.8875
54437,0.4209,-0.2740,0.8875
54460,0.4209,-0.2742,0.8876
54514,0.4209,-0.2740,0.8876
54539,0.4208,-0.2738,0.8876
54559,0.4208,-0.2737,0.8876
54582,0.4208,-0.2736,0.8876
54606,0.4208,-0.2732,0.8875
54629,0.4207,-0.2729,0.8875
54651,0.4207,-0.2726,0.8873
54668,0.4207,-0.2725,0.8873
54685,0.4207,-0.2722,0.8873
54707,0.4207,-0.2721,0.8873
54755,0.4208,-0.2716,0.8872
54778,0.4208,-0.2715,0.8872
54795,0.4208,-0.2715,0.8872
54817,0.4208,-0.2712,0.8872
54840,0.4208,-0.2712,0.8872
54857,0.4208,-0.2712,0.8872
54874,0.4208,-0.2712,0.8872
54892,0.4208,-0.2712,0.8872
54914,0.4209,-0.2712,0.8873
54958,0.4209,-0.2714,0.8875
54981,0.4209,-0.2715,0.8876
55004,0.4208,-0.2716,0.8876
55025,0.4208,-0.2717,0.8876
55045,0.4208,-0.2719,0.8877
55068,0.4208,-0.2719,0.8878
55091,0.4208,-0.2720,0.8878
55141,0.4207,-0.2722,0.8879
55164,0.4207,-0.2725,0.8879
55189,0.4207,-0.2726,0.8878
55210,0.4207,-0.2729,0.8878
55233,0.4207,-0.2732,0.8878
55257,0.4207,-0.2733,0.8877
55279,0.4207,-0.2738,0.8876
55297,0.4207,-0.2740,0.8876
55363,0.4207,-0.2745,0.8875
55388,0.4207,-0.2747,0.8873
55410,0.4207,-0.2747,0.8873
55433,0.4207,-0.2747,0.8873
55450,0.4207,-0.2747,0.8873
55483,0.4207,-0.2745,0.8872
55501,0.4207,-0.2744,0.8872
55546,0.4207,-0.2739,0.8873
55571,0.4207,-0.2737,0.8873
55593,0.4207,-0.2734,0.8873
55616,0.4207,-0.2733,0.8875
55633,0.4207,-0.2731,0.8875
55655,0.4205,-0.2728,0.8875
55678,0.4205,-0.2727,0.8876
55702,0.4205,-0.2723,0.8876
55724,0.4205,-0.2723,0.8876
55747,0.4205,-0.2722,0.8877
55780,0.4205,-0.2720,0.8877
55797,0.4205,-0.2720,0.8877
55822,0.4205,-0.2717,0.8876
55845,0.4205,-0.2717,0.8876
55867,0.4205,-0.2717,0.8875
55884,0.4205,-0.2717,0.8875
55909,0.4205,-0.2717,0.8875
55931,0.4207,-0.2719,0.8873
55972,0.4207,-0.2720,0.8872
55995,0.4208,-0.2721,0.8871
56012,0.4208,-0.2722,0.8871
56031,0.4208,-0.2723,0.8870
56051,0.4208,-0.2723,0.8870
56074,0.4208,-0.2723,0.8870
56099,0.4209,-0.2725,0.8870
56116,0.4209,-0.2725,0.8871
56167,0.4208,-0.2727,0.8871
56190,0.4208,-0.2727,0.8872
56213,0.4208,-0.2729,0.8873
56236,0.4208,-0.2732,0.8873
56258,0.4208,-0.2733,0.8873
56275,0.4208,-0.2736,0.8875
56297,0.4208,-0.2738,0.8875
56323,0.4208,-0.2739,0.8875
56379,0.4207,-0.2743,0.8876
56401,0.4207,-0.2742,0.8876
56424,0.4207,-0.2742,0.8876
56446,0.4207,-0.2739,0.8876
56463,0.4207,-0.2738,0.8876
56486,0.4207,-0.2738,0.8876
56508,0.4207,-0.2736,0.8876
56563,0.4207,-0.2732,0.8876
56588,0.4205,-0.2731,0.8876
56610,0.4205,-0.2728,0.8876
56633,0.4205,-0.2727,0.8876
56650,0.4205,-0.2726,0.8876
56672,0.4205,-0.2725,0.8876
56694,0.4205,-0.2723,0.8876
56713,0.4205,-0.2723,0.8876
56732,0.4205,-0.2722,0.8876
56754,0.4205,-0.2721,0.8876
56776,0.4205,-0.2721,0.8876
56810,0.4205,-0.2721,0.8875
56833,0.4205,-0.2721,0.8875
56850,0.4205,-0.2721,0.8875
56872,0.4205,-0.2721,0.8875
56895,0.4205,-0.2721,0.8875
56912,0.4207,-0.2721,0.8875
56936,0.4207,-0.2722,0.8875
56969,0.4205,-0.2722,0.8875
57006,0.4205,-0.2722,0.8876
57026,0.4205,-0.2722,0.8876
57049,0.4205,-0.2722,0.8876
57069,0.4205,-0.2722,0.8876
57091,0.4205,-0.2722,0.8876
57115,0.4205,-0.2722,0.8876
57139,0.4205,-0.2723,0.8876
57162,0.4205,-0.2723,0.8876
57197,0.4207,-0.2726,0.8875
57219,0.4207,-0.2729,0.8875
57243,0.4207,-0.2731,0.8875
57265,0.4207,-0.2734,0.8873
57287,0.4207,-0.2736,0.8873
57306,0.4207,-0.2737,0.8873
57331,0.4207,-0.2740,0.8873
57348,0.4207,-0.2740,0.8873
57398,0.4205,-0.2742,0.8873
57423,0.4205,-0.2742,0.8875
57445,0.4204,-0.2740,0.8876
57467,0.4204,-0.2740,0.8876
57484,0.4204,-0.2739,0.8877
57507,0.4204,-0.2739,0.8877
57529,0.4203,-0.2737,0.8878
57584,0.4203,-0.2733,0.8879
57609,0.4203,-0.2732,0.8881
57629,0.4203,-0.2728,0.8881
57652,0.4203,-0.2727,0.8881
57676,0.4203,-0.2725,0.8881
57698,0.4203,-0.2723,0.8881
57721,0.4204,-0.2723,0.8881
57738,0.4204,-0.2722,0.8879
57761,0.4204,-0.2721,0.8879
57784,0.4204,-0.2720,0.8878
57825,0.4204,-0.2719,0.8877
57848,0.4204,-0.2719,0.8877
57872,0.4204,-0.2719,0.8876
57894,0.4205,-0.2717,0.8876
57917,0.4205,-0.2717,0.8875
57936,0.4205,-0.2717,0.8875
57954,0.4205,-0.2719,0.8875
57976,0.4205,-0.2719,0.8875
58017,0.4205,-0.2719,0.8875
58037,0.4207,-0.2719,0.8875
58059,0.4207,-0.2719,0.8875
58080,0.4207,-0.2719,0.8875
58102,0.4207,-0.2719,0.8875
58126,0.4208,-0.2720,0.8875
58149,0.4208,-0.2721,0.8875
58166,0.4208,-0.2722,0.8875
58216,0.4208,-0.2727,0.8873
58240,0.4209,-0.2731,0.8873
58264,0.4209,-0.2733,0.8873
58286,0.4209,-0.2737,0.8873
58309,0.4209,-0.2738,0.8872
58326,0.4209,-0.2740,0.8872
58348,0.4209,-0.2742,0.8872
58365,0.4209,-0.2743,0.8872
58422,0.4208,-0.2744,0.8872
58447,0.4208,-0.2743,0.8872
58469,0.4208,-0.2742,0.8872
58492,0.4207,-0.2740,0.8872
58509,0.4207,-0.2738,0.8872
58531,0.4207,-0.2736,0.8872
58549,0.4205,-0.2734,0.8872
58566,0.4205,-0.2732,0.8872
58612,0.4205,-0.2727,0.8872
58637,0.4205,-0.2726,0.8872
58660,0.4205,-0.2725,0.8873
58682,0.4204,-0.2722,0.8873
58699,0.4204,-0.2721,0.8873
58722,0.4204,-0.2721,0.8875
58744,0.4204,-0.2720,0.8875
58768,0.4204,-0.2719,0.8876
58791,0.4204,-0.2719,0.8876
58813,0.4204,-0.2717,0.8877
58847,0.4204,-0.2716,0.8877
58868,0.4204,-0.2716,0.8878
58892,0.4204,-0.2715,0.8878
58914,0.4204,-0.2715,0.8879
58937,0.4203,-0.2715,0.8879
58954,0.4203,-0.2715,0.8879
58982,0.4203,-0.2715,0.8881
59005,0.4203,-0.2715,0.8881
59041,0.4202,-0.2715,0.8882
59060,0.4202,-0.2715,0.8882
59084,0.4202,-0.2715,0.8883
59104,0.4202,-0.2715,0.8883
59126,0.4202,-0.2716,0.8883
59143,0.4202,-0.2716,0.8884
59169,0.4202,-0.2717,0.8884
59187,0.4202,-0.2719,0.8884
59237,0.4202,-0.2726,0.8883
59259,0.4202,-0.2728,0.8883
59283,0.4203,-0.2731,0.8883
59305,0.4203,-0.2736,0.8882
59328,0.4203,-0.2738,0.8881
59345,0.4204,-0.2740,0.8881
59367,0.4204,-0.2743,0.8879
59385,0.4204,-0.2744,0.8878
59442,0.4207,-0.2745,0.8875
59472,0.4208,-0.2744,0.8873
59495,0.4208,-0.2742,0.8872
59517,0.4209,-0.2740,0.8872
59534,0.4209,-0.2736,0.8870
59556,0.4209,-0.2733,0.8870
59579,0.4209,-0.2731,0.8868
59634,0.4209,-0.2721,0.8868
59659,0.4209,-0.2719,0.8868
59681,0.4209,-0.2717,0.8868
59703,0.4209,-0.2715,0.8868
59720,0.4209,-0.2714,0.8870
59743,0.4209,-0.2714,0.8870
59776,0.4208,-0.2714,0.8871
59796,0.4208,-0.2715,0.8871
59818,0.4208,-0.2716,0.8873
59841,0.4208,-0.2717,0.8873
59874,0.4208,-0.2720,0.8875
59897,0.4207,-0.2722,0.8877
59914,0.4207,-0.2725,0.8877
59937,0.4207,-0.2726,0.8878
59959,0.4207,-0.2727,0.8879
59976,0.4207,-0.2728,0.8879
60000,0.4207,-0.2731,0.8879
60022,0.4205,-0.2731,0.8881
60064,0.4205,-0.2732,0.8881
60085,0.4205,-0.2731,0.8879
60107,0.4205,-0.2731,0.8879
60129,0.4205,-0.2729,0.8878
60152,0.4205,-0.2729,0.8878
60171,0.4205,-0.2731,0.8877
60193,0.4207,-0.2732,0.8876
60210,0.4207,-0.2733,0.8876
60251,0.4207,-0.2736,0.8873
60274,0.4208,-0.2737,0.8873
60294,0.4208,-0.2740,0.8872
60316,0.4208,-0.2742,0.8872
60338,0.4208,-0.2744,0.8871
60355,0.4208,-0.2745,0.8871
60388,0.4209,-0.2747,0.8871
60406,0.4209,-0.2747,0.8870
60456,0.4209,-0.2745,0.8870
60480,0.4209,-0.2745,0.8870
60503,0.4208,-0.2744,0.8870
60525,0.4208,-0.2740,0.8870
60542,0.4208,-0.2739,0.8870
60565,0.4208,-0.2738,0.8871
60587,0.4208,-0.2734,0.8871
60604,0.4208,-0.2733,0.8872
60621,0.4207,-0.2731,0.8872
60644,0.4207,-0.2729,0.8873
60704,0.4207,-0.2722,0.8876
60721,0.4207,-0.2720,0.8876
60738,0.4207,-0.2719,0.8877
60761,0.4207,-0.2716,0.8877
60783,0.4207,-0.2715,0.8878
60800,0.4207,-0.2714,0.8878
60822,0.4207,-0.2712,0.8878
60845,0.4207,-0.2712,0.8878
60878,0.4207,-0.2712,0.8878
60901,0.4207,-0.2714,0.8878
60918,0.4207,-0.2714,0.8878
60941,0.4207,-0.2715,0.8878
60963,0.4207,-0.2715,0.8878
60980,0.4207,-0.2716,0.8878
60998,0.4207,-0.2717,0.8877
61022,0.4205,-0.2719,0.8877
61069,0.4205,-0.2720,0.8877
61089,0.4205,-0.2721,0.8877
61113,0.4204,-0.2722,0.8876
61135,0.4204,-0.2723,0.8876
61158,0.4204,-0.2725,0.8876
61175,0.4204,-0.2726,0.8876
61197,0.4204,-0.2731,0.8875
61220,0.4204,-0.2733,0.8875
61239,0.4204,-0.2736,0.8875
61261,0.4204,-0.2740,0.8875
61283,0.4204,-0.2743,0.8873
61317,0.4204,-0.2747,0.8873
61334,0.4205,-0.2748,0.8873
61362,0.4205,-0.2749,0.8872
61385,0.4205,-0.2749,0.8872
61407,0.4205,-0.2749,0.8872
61424,0.4207,-0.2749,0.8872
61442,0.4207,-0.2748,0.8872
61464,0.4207,-0.2747,0.8871
61536,0.4208,-0.2742,0.8871
61554,0.4208,-0.2740,0.8871
61576,0.4208,-0.2737,0.8871
61599,0.4208,-0.2734,0.8871
61623,0.4208,-0.2731,0.8871
61641,0.4208,-0.2729,0.8871
61658,0.4207,-0.2728,0.8872
61719,0.4207,-0.2723,0.8872
61744,0.4207,-0.2721,0.8873
61767,0.4205,-0.2720,0.8875
61789,0.4205,-0.2720,0.8876
61806,0.4205,-0.2719,0.8876
61828,0.4205,-0.2720,0.8877
61849,0.4205,-0.2720,0.8877
61892,0.4205,-0.2721,0.8878
61915,0.4205,-0.2721,0.8879
61932,0.4205,-0.2722,0.8879
61952,0.4205,-0.2723,0.8881
61974,0.4205,-0.2723,0.8881
61999,0.4205,-0.2725,0.8881
62020,0.4207,-0.2725,0.8881
62039,0.4207,-0.2725,0.8881
62089,0.4208,-0.2723,0.8881
62110,0.4208,-0.2723,0.8881
62127,0.4209,-0.2722,0.8881
62149,0.4209,-0.2722,0.8881
62171,0.4209,-0.2722,0.8879
62188,0.4209,-0.2722,0.8879
62211,0.4209,-0.2723,0.8879
62233,0.4209,-0.2726,0.8878
62252,0.4209,-0.2727,0.8878
62271,0.4209,-0.2729,0.8877
62294,0.4209,-0.2731,0.8877
62316,0.4209,-0.2734,0.8876
62349,0.4208,-0.2737,0.8876
62369,0.4208,-0.2738,0.8876
62386,0.4208,-0.2739,0.8876
62409,0.4208,-0.2739,0.8876
62431,0.4207,-0.2740,0.8876
62450,0.4207,-0.2740,0.8876
62475,0.4205,-0.2740,0.8876
62497,0.4205,-0.2740,0.8876
62554,0.4204,-0.2739,0.8876
62578,0.4204,-0.2738,0.8877
62601,0.4204,-0.2737,0.8877
62623,0.4204,-0.2736,0.8877
62640,0.4204,-0.2736,0.8877
62662,0.4204,-0.2733,0.8877
62679,0.4204,-0.2733,0.8877
62740,0.4205,-0.2731,0.8878
62765,0.4205,-0.2728,0.8878
62788,0.4205,-0.2728,0.8878
62810,0.4207,-0.2726,0.8879
62827,0.4207,-0.2726,0.8879
62850,0.4207,-0.2725,0.8879
62875,0.4207,-0.2723,0.8881
62917,0.4207,-0.2721,0.8882
62940,0.4207,-0.2720,0.8882
62957,0.4207,-0.2719,0.8882
62980,0.4207,-0.2719,0.8882
63013,0.4207,-0.2717,0.8882
63034,0.4207,-0.2717,0.8882
63055,0.4207,-0.2719,0.8882
63075,0.4205,-0.2720,0.8881
63094,0.4205,-0.2720,0.8881
63117,0.4205,-0.2721,0.8881
63139,0.4205,-0.2723,0.8881
63172,0.4205,-0.2727,0.8881
63195,0.4204,-0.2729,0.8881
63212,0.4204,-0.2732,0.8881
63234,0.4204,-0.2733,0.8881
63256,0.4204,-0.2738,0.8881
63273,0.4204,-0.2739,0.8881
63298,0.4204,-0.2742,0.8881
63320,0.4204,-0.2743,0.8881
63361,0.4205,-0.2744,0.8879
63382,0.4205,-0.2743,0.8879
63399,0.4205,-0.2740,0.8879
63421,0.4205,-0.2739,0.8878
63444,0.4207,-0.2737,0.8878
63461,0.4207,-0.2734,0.8878
63493,0.4207,-0.2731,0.8877
63512,0.4208,-0.2728,0.8877
63563,0.4209,-0.2720,0.8877
63587,0.4209,-0.2719,0.8876
63610,0.4209,-0.2717,0.8876
63632,0.4209,-0.2716,0.8876
63649,0.4209,-0.2715,0.8876
63672,0.4209,-0.2715,0.8876
63694,0.4209,-0.2716,0.8876
63749,0.4209,-0.2717,0.8876
63774,0.4209,-0.2719,0.8876
63797,0.4208,-0.2720,0.8876
63820,0.4208,-0.2720,0.8876
63837,0.4208,-0.2720,0.8877
63859,0.4207,-0.2720,0.8877
63880,0.4207,-0.2720,0.8877
63904,0.4207,-0.2720,0.8877
63921,0.4207,-0.2720,0.8877
63943,0.4207,-0.2719,0.8877
63992,0.4207,-0.2719,0.8876
64017,0.4207,-0.2717,0.8876
64039,0.4207,-0.2717,0.8876
64060,0.4207,-0.2717,0.8875
64079,0.4208,-0.2717,0.8875
64106,0.4208,-0.2717,0.8873
64123,0.4208,-0.2717,0.8873
64145,0.4208,-0.2719,0.8873
64186,0.4209,-0.2722,0.8872
64209,0.4209,-0.2726,0.8871
64226,0.4209,-0.2728,0.8871
64249,0.4210,-0.2731,0.8871
64271,0.4210,-0.2736,0.8870
64288,0.4210,-0.2737,0.8870
64310,0.4210,-0.2739,0.8870
64328,0.4210,-0.2740,0.8870
64375,0.4209,-0.2742,0.8870
64403,0.4209,-0.2740,0.8870
64427,0.4209,-0.2739,0.8870
64449,0.4209,-0.2738,0.8870
64473,0.4209,-0.2733,0.8870
64496,0.4209,-0.2731,0.8870
64520,0.4209,-0.2726,0.8870
64580,0.4209,-0.2719,0.8870
64605,0.4209,-0.2715,0.8870
64628,0.4209,-0.2712,0.8870
64650,0.4209,-0.2710,0.8870
64667,0.4209,-0.2709,0.8870
64690,0.4209,-0.2709,0.8871
64715,0.4209,-0.2709,0.8872
64770,0.4208,-0.2711,0.8875
64793,0.4207,-0.2712,0.8875
64810,0.4207,-0.2714,0.8876
64832,0.4205,-0.2716,0.8878
64855,0.4205,-0.2717,0.8878
64872,0.4204,-0.2719,0.8879
64894,0.4204,-0.2721,0.8879
64915,0.4203,-0.2723,0.8881
64957,0.4203,-0.2725,0.8881
64980,0.4203,-0.2726,0.8881
64997,0.4203,-0.2726,0.8881
65027,0.4203,-0.2725,0.8881
65048,0.4203,-0.2725,0.8879
65068,0.4204,-0.2723,0.8879
65091,0.4204,-0.2723,0.8878
65113,0.4205,-0.2722,0.8877
65130,0.4205,-0.2721,0.8877
65147,0.4205,-0.2721,0.8876
65170,0.4207,-0.2721,0.8876
65217,0.4208,-0.2723,0.8873
65240,0.4208,-0.2723,0.8873
65257,0.4209,-0.2725,0.8873
65279,0.4209,-0.2727,0.8872
65302,0.4209,-0.2728,0.8872
65330,0.4209,-0.2731,0.8873
65347,0.4209,-0.2731,0.8873
65370,0.4209,-0.2731,0.8873
65403,0.4208,-0.2732,0.8875
65425,0.4207,-0.2731,0.8876
65448,0.4207,-0.2729,0.8877
65470,0.4207,-0.2729,0.8877
65492,0.4205,-0.2727,0.8878
65509,0.4205,-0.2727,0.8879
65532,0.4205,-0.2726,0.8879
65550,0.4204,-0.2725,0.8879
65614,0.4204,-0.2721,0.8881
65641,0.4203,-0.2720,0.8881
65664,0.4203,-0.2719,0.8881
65686,0.4203,-0.2717,0.8881
65703,0.4203,-0.2717,0.8881
65726,0.4203,-0.2717,0.8881
65750,0.4203,-0.2717,0.8881
65803,0.4203,-0.2719,0.8881
65828,0.4203,-0.2719,0.8881
65850,0.4203,-0.2720,0.8879
65872,0.4203,-0.2720,0.8879
65889,0.4204,-0.2720,0.8879
65912,0.4204,-0.2720,0.8879
65938,0.4204,-0.2720,0.8878
65980,0.4204,-0.2720,0.8877
66003,0.4205,-0.2720,0.8877
66026,0.4205,-0.2721,0.8877
66048,0.4205,-0.2721,0.8877
66067,0.4205,-0.2722,0.8878
66084,0.4205,-0.2723,0.8878
66107,0.4205,-0.2723,0.8878
66129,0.4205,-0.2727,0.8879
66146,0.4205,-0.2728,0.8879
66163,0.4205,-0.2731,0.8879
66185,0.4205,-0.2732,0.8881
66233,0.4205,-0.2739,0.8881
66254,0.4205,-0.2740,0.8881
66271,0.4205,-0.2743,0.8881
66293,0.4205,-0.2744,0.8881
66315,0.4204,-0.2745,0.8881
66332,0.4204,-0.2747,0.8881
66355,0.4204,-0.2747,0.8881
66372,0.4204,-0.2745,0.8879
66419,0.4204,-0.2743,0.8878
66442,0.4204,-0.2739,0.8878
66459,0.4204,-0.2737,0.8877
66479,0.4204,-0.2734,0.8877
66502,0.4204,-0.2732,0.8877
66526,0.4204,-0.2728,0.8877
66551,0.4204,-0.2726,0.8877
66570,0.4204,-0.2723,0.8877
66641,0.4204,-0.2715,0.8878
66658,0.4204,-0.2715,0.8879
66681,0.4204,-0.2714,0.8879
66703,0.4204,-0.2714,0.8878
66723,0.4204,-0.2712,0.8878
66746,0.4204,-0.2711,0.8878
66770,0.4204,-0.2710,0.8878
66823,0.4205,-0.2699,0.8879
66856,0.4205,-0.2693,0.8881
66879,0.4204,-0.2690,0.8882
66901,0.4204,-0.2689,0.8882
66918,0.4205,-0.2687,0.8882
66940,0.4211,-0.2686,0.8881
66963,0.4219,-0.2684,0.8877
66998,0.4240,-0.2677,0.8871
67019,0.4263,-0.2665,0.8864
67045,0.4271,-0.2659,0.8861
67065,0.4277,-0.2654,0.8860
67087,0.4277,-0.2648,0.8861
67110,0.4272,-0.2648,0.8864
67132,0.4264,-0.2649,0.8866
67157,0.4241,-0.2660,0.8873
67177,0.4226,-0.2668,0.8877
67199,0.4194,-0.2690,0.8887
67221,0.4178,-0.2701,0.8892
67255,0.4147,-0.2719,0.8901
67278,0.4133,-0.2725,0.8906
67295,0.4121,-0.2728,0.8911
67317,0.4105,-0.2734,0.8917
67340,0.4100,-0.2736,0.8918
67358,0.4099,-0.2734,0.8920
67382,0.4102,-0.2729,0.8920
67405,0.4106,-0.2725,0.8918
67446,0.4130,-0.2701,0.8912
67466,0.4138,-0.2692,0.8910
67489,0.4148,-0.2681,0.8907
67511,0.4165,-0.2659,0.8905
67533,0.4171,-0.2648,0.8904
67550,0.4177,-0.2637,0.8904
67573,0.4182,-0.2626,0.8904
67591,0.4187,-0.2616,0.8905
67655,0.4202,-0.2593,0.8906
67680,0.4209,-0.2590,0.8905
67703,0.4213,-0.2592,0.8905
67725,0.4219,-0.2595,0.8904
67742,0.4222,-0.2598,0.8904
67766,0.4225,-0.2600,0.8903
67791,0.4231,-0.2604,0.8903
67846,0.4241,-0.2599,0.8903
67871,0.4244,-0.2595,0.8904
67893,0.4252,-0.2583,0.8905
67916,0.4255,-0.2576,0.8905
67933,0.4259,-0.2566,0.8906
67955,0.4268,-0.2545,0.8907
67977,0.4271,-0.2534,0.8909
68019,0.4280,-0.2512,0.8910
68040,0.4286,-0.2489,0.8911
68068,0.4290,-0.2479,0.8912
68087,0.4294,-0.2461,0.8912
68109,0.4297,-0.2452,0.8912
68126,0.4299,-0.2445,0.8912
68149,0.4301,-0.2440,0.8912
68171,0.4303,-0.2432,0.8912
68188,0.4304,-0.2429,0.8911
68205,0.4304,-0.2427,0.8911
68228,0.4305,-0.2427,0.8911
68269,0.4304,-0.2429,0.8910
68292,0.4304,-0.2430,0.8910
68316,0.4304,-0.2433,0.8910
68338,0.4303,-0.2438,0.8910
68361,0.4302,-0.2440,0.8910
68382,0.4301,-0.2445,0.8911
68400,0.4299,-0.2448,0.8912
68422,0.4299,-0.2450,0.8912
68456,0.4298,-0.2454,0.8914
68479,0.4297,-0.2455,0.8915
68496,0.4297,-0.2456,0.8915
68517,0.4296,-0.2458,0.8916
68540,0.4296,-0.2458,0.8916
68557,0.4296,-0.2458,0.8916
68579,0.4296,-0.2458,0.8917
68603,0.4296,-0.2458,0.8916
68660,0.4297,-0.2456,0.8916
68680,0.4297,-0.2452,0.8915
68697,0.4298,-0.2451,0.8915
68720,0.4298,-0.2450,0.8915
68742,0.4298,-0.2448,0.8915
68759,0.4299,-0.2446,0.8915
68781,0.4299,-0.2444,0.8914
68806,0.4301,-0.2441,0.8914
68851,0.4301,-0.2439,0.8914
68874,0.4301,-0.2438,0.8914
68893,0.4301,-0.2437,0.8914
68915,0.4301,-0.2437,0.8914
68938,0.4301,-0.2437,0.8914
68955,0.4301,-0.2437,0.8914
68988,0.4301,-0.2437,0.8914
69039,0.4301,-0.2438,0.8914
69057,0.4301,-0.2440,0.8914
69083,0.4301,-0.2440,0.8914
69105,0.4301,-0.2441,0.8914
69124,0.4301,-0.2444,0.8914
69141,0.4301,-0.2445,0.8914
69164,0.4301,-0.2445,0.8914
69186,0.4302,-0.2446,0.8914
69203,0.4302,-0.2446,0.8914
69220,0.4302,-0.2448,0.8914
69242,0.4302,-0.2448,0.8915
69291,0.4301,-0.2448,0.8915
69315,0.4301,-0.2448,0.8916
69332,0.4301,-0.2446,0.8916
69354,0.4301,-0.2445,0.8917
69376,0.4301,-0.2443,0.8917
