timestamp,acc_x,acc_y,acc_z
66985,0.1571,-0.0997,-0.9563
67073,0.1571,-0.0996,-0.9567
67082,0.1571,-0.0996,-0.9567
67095,0.1571,-0.0996,-0.9567
67102,0.1571,-0.0995,-0.9567
67110,0.1571,-0.0995,-0.9568
67125,0.1571,-0.0994,-0.9568
67139,0.1571,-0.0991,-0.9569
67149,0.1571,-0.0991,-0.9569
67157,0.1571,-0.0990,-0.9570
67165,0.1571,-0.0989,-0.9570
67173,0.1571,-0.0989,-0.9572
67181,0.1571,-0.0988,-0.9572
67189,0.1572,-0.0988,-0.9573
67199,0.1572,-0.0988,-0.9573
67207,0.1572,-0.0986,-0.9574
67241,0.1573,-0.0988,-0.9578
67249,0.1573,-0.0988,-0.9578
67257,0.1573,-0.0988,-0.9579
67265,0.1573,-0.0989,-0.9580
67273,0.1573,-0.0989,-0.9580
67283,0.1573,-0.0990,-0.9581
67291,0.1573,-0.0990,-0.9581
67300,0.1573,-0.0990,-0.9583
67308,0.1573,-0.0990,-0.9583
67316,0.1573,-0.0990,-0.9583
67324,0.1573,-0.0990,-0.9583
67332,0.1573,-0.0990,-0.9584
67340,0.1573,-0.0990,-0.9584
67350,0.1573,-0.0989,-0.9584
67358,0.1573,-0.0989,-0.9584
67366,0.1573,-0.0988,-0.9584
67374,0.1572,-0.0988,-0.9584
67382,0.1572,-0.0986,-0.9584
67390,0.1572,-0.0985,-0.9584
67400,0.1572,-0.0984,-0.9584
67408,0.1571,-0.0984,-0.9584
67441,0.1571,-0.0981,-0.9584
67451,0.1571,-0.0981,-0.9584
67459,0.1572,-0.0980,-0.9583
67467,0.1572,-0.0980,-0.9583
67475,0.1573,-0.0980,-0.9581
67485,0.1575,-0.0980,-0.9580
67493,0.1576,-0.0980,-0.9580
67508,0.1580,-0.0981,-0.9578
67515,0.1581,-0.0983,-0.9576
67523,0.1583,-0.0983,-0.9576
67531,0.1583,-0.0984,-0.9575
67539,0.1584,-0.0985,-0.9575
67549,0.1584,-0.0985,-0.9575
67557,0.1583,-0.0986,-0.9575
67565,0.1583,-0.0988,-0.9575
67573,0.1582,-0.0989,-0.9575
67581,0.1581,-0.0989,-0.9575
67589,0.1578,-0.0989,-0.9576
67597,0.1577,-0.0990,-0.9576
67608,0.1575,-0.0989,-0.9576
67653,0.1565,-0.0980,-0.9580
67661,0.1564,-0.0979,-0.9581
67669,0.1562,-0.0978,-0.9581
67683,0.1562,-0.0975,-0.9583
67691,0.1561,-0.0974,-0.9583
67699,0.1561,-0.0973,-0.9584
67707,0.1561,-0.0972,-0.9584
67715,0.1561,-0.0970,-0.9584
67723,0.1561,-0.0969,-0.9585
67731,0.1560,-0.0967,-0.9585
67741,0.1559,-0.0966,-0.9586
67749,0.1558,-0.0962,-0.9586
67757,0.1555,-0.0958,-0.9587
67765,0.1552,-0.0955,-0.9589
67773,0.1548,-0.0948,-0.9590
67781,0.1544,-0.0944,-0.9591
67789,0.1541,-0.0940,-0.9591
67797,0.1539,-0.0938,-0.9591
67820,0.1539,-0.0941,-0.9590
67830,0.1542,-0.0944,-0.9589
67838,0.1545,-0.0948,-0.9586
67846,0.1550,-0.0952,-0.9584
67854,0.1555,-0.0957,-0.9581
67862,0.1560,-0.0963,-0.9579
67895,0.1582,-0.0981,-0.9568
67903,0.1587,-0.0985,-0.9567
67912,0.1591,-0.0989,-0.9565
67920,0.1594,-0.0991,-0.9564
67928,0.1595,-0.0992,-0.9563
67938,0.1598,-0.0994,-0.9563
67946,0.1598,-0.0994,-0.9563
67954,0.1598,-0.0992,-0.9563
67962,0.1598,-0.0991,-0.9564
67970,0.1597,-0.0989,-0.9565
67978,0.1594,-0.0986,-0.9567
67986,0.1592,-0.0983,-0.9568
67994,0.1589,-0.0978,-0.9569
68004,0.1587,-0.0974,-0.9570
68019,0.1581,-0.0964,-0.9574
68036,0.1573,-0.0953,-0.9578
68044,0.1571,-0.0950,-0.9579
68052,0.1569,-0.0945,-0.9580
68060,0.1566,-0.0941,-0.9583
68124,0.1558,-0.0939,-0.9589
68133,0.1558,-0.0941,-0.9589
68147,0.1558,-0.0947,-0.9589
68155,0.1558,-0.0951,-0.9587
68162,0.1558,-0.0951,-0.9587
68177,0.1559,-0.0957,-0.9587
68191,0.1559,-0.0963,-0.9586
68201,0.1560,-0.0966,-0.9585
68209,0.1560,-0.0968,-0.9584
68218,0.1561,-0.0970,-0.9583
68226,0.1561,-0.0973,-0.9581
68236,0.1562,-0.0973,-0.9581
68244,0.1562,-0.0974,-0.9580
68252,0.1562,-0.0974,-0.9579
68285,0.1565,-0.0975,-0.9576
68293,0.1565,-0.0977,-0.9576
68301,0.1565,-0.0980,-0.9578
68309,0.1566,-0.0986,-0.9579
68317,0.1567,-0.0995,-0.9581
68327,0.1567,-0.1007,-0.9586
68335,0.1569,-0.1022,-0.9591
68343,0.1570,-0.1038,-0.9597
68351,0.1571,-0.1055,-0.9604
68359,0.1572,-0.1069,-0.9612
68367,0.1573,-0.1080,-0.9617
68375,0.1573,-0.1085,-0.9622
68383,0.1573,-0.1082,-0.9625
68393,0.1572,-0.1069,-0.9625
68401,0.1571,-0.1047,-0.9624
68409,0.1569,-0.1016,-0.9619
68417,0.1566,-0.0975,-0.9613
68425,0.1562,-0.0927,-0.9603
68433,0.1559,-0.0870,-0.9592
68443,0.1555,-0.0811,-0.9580
68451,0.1552,-0.0748,-0.9568
68484,0.1534,-0.0542,-0.9528
68492,0.1532,-0.0515,-0.9524
68500,0.1531,-0.0503,-0.9521
68508,0.1530,-0.0500,-0.9521
68516,0.1530,-0.0510,-0.9524
68527,0.1532,-0.0554,-0.9534
68541,0.1533,-0.0587,-0.9540
68549,0.1536,-0.0624,-0.9546
68557,0.1537,-0.0664,-0.9554
68565,0.1539,-0.0708,-0.9562
68573,0.1542,-0.0752,-0.9569
68581,0.1544,-0.0796,-0.9576
68591,0.1547,-0.0840,-0.9584
68599,0.1549,-0.0881,-0.9591
68607,0.1552,-0.0920,-0.9597
68615,0.1554,-0.0956,-0.9602
68634,0.1559,-0.1039,-0.9613
68644,0.1561,-0.1057,-0.9614
68678,0.1565,-0.1089,-0.9614
68686,0.1565,-0.1088,-0.9613
68694,0.1565,-0.1083,-0.9611
68702,0.1565,-0.1075,-0.9608
68710,0.1565,-0.1067,-0.9604
68720,0.1565,-0.1056,-0.9602
68728,0.1565,-0.1044,-0.9598
68736,0.1565,-0.1031,-0.9595
68744,0.1564,-0.1019,-0.9591
68752,0.1564,-0.1007,-0.9589
68760,0.1564,-0.0995,-0.9585
68768,0.1564,-0.0984,-0.9583
68776,0.1564,-0.0974,-0.9580
68786,0.1564,-0.0966,-0.9578
68794,0.1564,-0.0958,-0.9575
68802,0.1564,-0.0952,-0.9574
68810,0.1564,-0.0948,-0.9573
68818,0.1564,-0.0945,-0.9572
68827,0.1565,-0.0944,-0.9572
68835,0.1565,-0.0942,-0.9572
68845,0.1565,-0.0944,-0.9572
68879,0.1565,-0.0953,-0.9574
68887,0.1566,-0.0956,-0.9575
68895,0.1566,-0.0959,-0.9576
68903,0.1566,-0.0963,-0.9578
68911,0.1566,-0.0967,-0.9579
68921,0.1565,-0.0970,-0.9580
68929,0.1565,-0.0974,-0.9581
68937,0.1565,-0.0978,-0.9583
68945,0.1565,-0.0981,-0.9583
68953,0.1564,-0.0984,-0.9584
68961,0.1564,-0.0986,-0.9584
68969,0.1562,-0.0989,-0.9585
68977,0.1562,-0.0990,-0.9585
68987,0.1561,-0.0991,-0.9585
68995,0.1561,-0.0991,-0.9585
69003,0.1561,-0.0991,-0.9585
69011,0.1560,-0.0991,-0.9585
69019,0.1560,-0.0990,-0.9585
69027,0.1560,-0.0989,-0.9585
69042,0.1560,-0.0984,-0.9585
69107,0.1560,-0.0955,-0.9583
69117,0.1560,-0.0952,-0.9583
69125,0.1560,-0.0948,-0.9583
69134,0.1560,-0.0946,-0.9583
69141,0.1560,-0.0945,-0.9581
69149,0.1560,-0.0944,-0.9581
69164,0.1559,-0.0942,-0.9580
69170,0.1559,-0.0942,-0.9580
69182,0.1559,-0.0944,-0.9579
69190,0.1559,-0.0945,-0.9579
69198,0.1559,-0.0946,-0.9578
69206,0.1559,-0.0947,-0.9578
69214,0.1559,-0.0950,-0.9578
69222,0.1559,-0.0953,-0.9576
69230,0.1559,-0.0956,-0.9576
69238,0.1559,-0.0959,-0.9576
69248,0.1559,-0.0962,-0.9576
69258,0.1559,-0.0966,-0.9576
69266,0.1559,-0.0968,-0.9576
69274,0.1560,-0.0972,-0.9576
69282,0.1560,-0.0974,-0.9576
69290,0.1560,-0.0977,-0.9576
69298,0.1561,-0.0978,-0.9578
69306,0.1561,-0.0979,-0.9578
69339,0.1565,-0.0984,-0.9579
69347,0.1565,-0.0985,-0.9579
69355,0.1566,-0.0986,-0.9580
69363,0.1567,-0.0989,-0.9580
69371,0.1567,-0.0991,-0.9580
69381,0.1569,-0.0992,-0.9580
69389,0.1569,-0.0994,-0.9580
69397,0.1569,-0.0994,-0.9580
69405,0.1567,-0.0994,-0.9580
69413,0.1567,-0.0994,-0.9580
69421,0.1567,-0.0994,-0.9579
69429,0.1566,-0.0992,-0.9579
69450,0.1565,-0.0992,-0.9578
69486,0.1561,-0.0985,-0.9576
69494,0.1561,-0.0984,-0.9576
69502,0.1560,-0.0981,-0.9576
69510,0.1560,-0.0980,-0.9576
69517,0.1560,-0.0980,-0.9576
69527,0.1560,-0.0978,-0.9576
69535,0.1560,-0.0977,-0.9576
69549,0.1560,-0.0977,-0.9578
69563,0.1560,-0.0975,-0.9578
69571,0.1560,-0.0975,-0.9578
69579,0.1561,-0.0975,-0.9578
69589,0.1561,-0.0974,-0.9578
69597,0.1561,-0.0974,-0.9578
69605,0.1562,-0.0975,-0.9578
69613,0.1562,-0.0975,-0.9578
69621,0.1562,-0.0975,-0.9578
69629,0.1564,-0.0975,-0.9578
69637,0.1564,-0.0975,-0.9578
69645,0.1564,-0.0975,-0.9578
69666,0.1564,-0.0975,-0.9579
69676,0.1564,-0.0974,-0.9579
69684,0.1564,-0.0974,-0.9579
69692,0.1564,-0.0973,-0.9579
69700,0.1564,-0.0972,-0.9580
69707,0.1564,-0.0972,-0.9580
69742,0.1562,-0.0967,-0.9581
69751,0.1562,-0.0966,-0.9583
69759,0.1562,-0.0964,-0.9583
69767,0.1562,-0.0963,-0.9583
69775,0.1562,-0.0963,-0.9583
69785,0.1561,-0.0962,-0.9583
69793,0.1561,-0.0961,-0.9583
69801,0.1561,-0.0961,-0.9583
69809,0.1561,-0.0959,-0.9583
69817,0.1561,-0.0959,-0.9581
69825,0.1560,-0.0958,-0.9581
69833,0.1560,-0.0958,-0.9580
69841,0.1560,-0.0958,-0.9580
69851,0.1560,-0.0958,-0.9580
69859,0.1560,-0.0958,-0.9579
69867,0.1561,-0.0958,-0.9579
69877,0.1561,-0.0958,-0.9579
69885,0.1561,-0.0958,-0.9579
69893,0.1561,-0.0958,-0.9579
69901,0.1561,-0.0958,-0.9579
69909,0.1561,-0.0958,-0.9579
69942,0.1562,-0.0959,-0.9579
69950,0.1562,-0.0959,-0.9579
69958,0.1562,-0.0959,-0.9579
69966,0.1562,-0.0959,-0.9579
69974,0.1562,-0.0959,-0.9579
69984,0.1562,-0.0959,-0.9579
69992,0.1562,-0.0959,-0.9579
70000,0.1562,-0.0959,-0.9579
70008,0.1562,-0.0959,-0.9580
70016,0.1562,-0.0959,-0.9580
70024,0.1561,-0.0959,-0.9580
70032,0.1561,-0.0959,-0.9580
70040,0.1561,-0.0959,-0.9580
70050,0.1561,-0.0959,-0.9581
70059,0.1560,-0.0959,-0.9581
70073,0.1560,-0.0959,-0.9581
70084,0.1560,-0.0959,-0.9581
70098,0.1559,-0.0959,-0.9581
70165,0.1560,-0.0962,-0.9580
70175,0.1560,-0.0963,-0.9580
70190,0.1560,-0.0963,-0.9579
70197,0.1560,-0.0964,-0.9579
70205,0.1560,-0.0964,-0.9579
70213,0.1560,-0.0964,-0.9579
70221,0.1559,-0.0964,-0.9578
70229,0.1559,-0.0964,-0.9578
70241,0.1559,-0.0964,-0.9578
70249,0.1558,-0.0964,-0.9578
70270,0.1556,-0.0964,-0.9578
70277,0.1556,-0.0964,-0.9578
70287,0.1556,-0.0963,-0.9578
70295,0.1555,-0.0963,-0.9578
70328,0.1555,-0.0961,-0.9580
70336,0.1555,-0.0959,-0.9580
70343,0.1555,-0.0959,-0.9580
70360,0.1555,-0.0959,-0.9581
70370,0.1556,-0.0958,-0.9581
70378,0.1556,-0.0958,-0.9583
70386,0.1556,-0.0958,-0.9583
70394,0.1558,-0.0958,-0.9583
70401,0.1558,-0.0958,-0.9583
70417,0.1559,-0.0957,-0.9583
70425,0.1559,-0.0958,-0.9584
70435,0.1560,-0.0958,-0.9584
70443,0.1560,-0.0958,-0.9584
70451,0.1560,-0.0958,-0.9585
70459,0.1561,-0.0958,-0.9585
70467,0.1561,-0.0958,-0.9585
70475,0.1561,-0.0958,-0.9585
70483,0.1561,-0.0959,-0.9586
70493,0.1562,-0.0959,-0.9586
70527,0.1561,-0.0959,-0.9586
70535,0.1561,-0.0959,-0.9586
70543,0.1561,-0.0959,-0.9586
70551,0.1561,-0.0959,-0.9586
70558,0.1561,-0.0959,-0.9586
70568,0.1560,-0.0958,-0.9586
70575,0.1560,-0.0958,-0.9586
70590,0.1559,-0.0958,-0.9586
70598,0.1559,-0.0957,-0.9586
70606,0.1559,-0.0957,-0.9586
70614,0.1559,-0.0957,-0.9586
70622,0.1558,-0.0957,-0.9585
70632,0.1558,-0.0957,-0.9585
70640,0.1559,-0.0957,-0.9585
70648,0.1559,-0.0957,-0.9584
70656,0.1559,-0.0958,-0.9584
70665,0.1559,-0.0958,-0.9584
70673,0.1559,-0.0958,-0.9583
70681,0.1560,-0.0959,-0.9583
70689,0.1560,-0.0959,-0.9581
70725,0.1561,-0.0962,-0.9578
70733,0.1561,-0.0962,-0.9578
70741,0.1561,-0.0963,-0.9576
70748,0.1561,-0.0963,-0.9576
70766,0.1562,-0.0964,-0.9575
70774,0.1562,-0.0964,-0.9575
70781,0.1562,-0.0964,-0.9575
70797,0.1562,-0.0966,-0.9575
70805,0.1562,-0.0966,-0.9575
70813,0.1562,-0.0966,-0.9575
70821,0.1562,-0.0966,-0.9575
70831,0.1562,-0.0967,-0.9576
70839,0.1562,-0.0967,-0.9576
70847,0.1562,-0.0967,-0.9578
70855,0.1562,-0.0967,-0.9578
70863,0.1562,-0.0967,-0.9579
70871,0.1562,-0.0967,-0.9580
70879,0.1562,-0.0968,-0.9580
70887,0.1562,-0.0967,-0.9581
70897,0.1562,-0.0967,-0.9584
70907,0.1562,-0.0967,-0.9585
70915,0.1562,-0.0967,-0.9585
70923,0.1564,-0.0967,-0.9586
70931,0.1564,-0.0967,-0.9587
70938,0.1564,-0.0967,-0.9587
70954,0.1562,-0.0966,-0.9589
70987,0.1562,-0.0964,-0.9591
70996,0.1562,-0.0964,-0.9591
71004,0.1561,-0.0964,-0.9591
71012,0.1561,-0.0964,-0.9591
71020,0.1561,-0.0964,-0.9591
71030,0.1561,-0.0963,-0.9590
71037,0.1561,-0.0963,-0.9590
71053,0.1561,-0.0963,-0.9589
71061,0.1561,-0.0963,-0.9589
71069,0.1561,-0.0963,-0.9587
71091,0.1561,-0.0962,-0.9586
71100,0.1561,-0.0962,-0.9585
71111,0.1561,-0.0962,-0.9584
71125,0.1561,-0.0961,-0.9583
71139,0.1561,-0.0961,-0.9581
71147,0.1561,-0.0961,-0.9580
71217,0.1559,-0.0963,-0.9574
71231,0.1559,-0.0963,-0.9573
71239,0.1558,-0.0963,-0.9573
71247,0.1558,-0.0963,-0.9573
71255,0.1556,-0.0964,-0.9573
71263,0.1556,-0.0964,-0.9572
71271,0.1556,-0.0964,-0.9572
71279,0.1555,-0.0964,-0.9572
71289,0.1555,-0.0964,-0.9570
71298,0.1555,-0.0964,-0.9570
71306,0.1555,-0.0964,-0.9570
71316,0.1555,-0.0964,-0.9570
71324,0.1554,-0.0964,-0.9570
71332,0.1554,-0.0964,-0.9570
71340,0.1554,-0.0964,-0.9570
71373,0.1554,-0.0964,-0.9573
71381,0.1554,-0.0964,-0.9573
71389,0.1554,-0.0964,-0.9573
71397,0.1555,-0.0964,-0.9574
71405,0.1555,-0.0964,-0.9574
71415,0.1555,-0.0964,-0.9575
71423,0.1556,-0.0964,-0.9575
71431,0.1556,-0.0964,-0.9575
71439,0.1558,-0.0966,-0.9575
71447,0.1558,-0.0966,-0.9575
71455,0.1559,-0.0966,-0.9576
71463,0.1559,-0.0966,-0.9576
71471,0.1560,-0.0966,-0.9576
71481,0.1560,-0.0966,-0.9576
71489,0.1560,-0.0966,-0.9576
71497,0.1561,-0.0966,-0.9575
71505,0.1561,-0.0966,-0.9575
71513,0.1561,-0.0966,-0.9575
71523,0.1561,-0.0966,-0.9575
71531,0.1561,-0.0966,-0.9575
71539,0.1561,-0.0966,-0.9575
71572,0.1560,-0.0964,-0.9575
71580,0.1560,-0.0963,-0.9575
71588,0.1560,-0.0963,-0.9575
71605,0.1559,-0.0963,-0.9575
71615,0.1559,-0.0963,-0.9575
71623,0.1559,-0.0963,-0.9575
71631,0.1558,-0.0962,-0.9575
71639,0.1558,-0.0962,-0.9575
71647,0.1558,-0.0962,-0.9575
71655,0.1558,-0.0962,-0.9575
71663,0.1556,-0.0963,-0.9576
71682,0.1556,-0.0963,-0.9576
71696,0.1558,-0.0963,-0.9576
71704,0.1558,-0.0964,-0.9576
71712,0.1558,-0.0964,-0.9576
71720,0.1558,-0.0964,-0.9576
71730,0.1559,-0.0964,-0.9576
71738,0.1559,-0.0966,-0.9576
71746,0.1559,-0.0966,-0.9575
71779,0.1559,-0.0966,-0.9575
71787,0.1559,-0.0966,-0.9575
71795,0.1559,-0.0966,-0.9575
71803,0.1559,-0.0966,-0.9575
71811,0.1559,-0.0966,-0.9575
71821,0.1559,-0.0966,-0.9574
71829,0.1559,-0.0966,-0.9574
71837,0.1559,-0.0966,-0.9574
71845,0.1559,-0.0964,-0.9575
71853,0.1558,-0.0964,-0.9575
71861,0.1558,-0.0964,-0.9575
71869,0.1558,-0.0964,-0.9575
71877,0.1558,-0.0964,-0.9575
71887,0.1558,-0.0964,-0.9575
71909,0.1558,-0.0964,-0.9575
71918,0.1558,-0.0964,-0.9576
71926,0.1558,-0.0964,-0.9576
71936,0.1558,-0.0964,-0.9576
71944,0.1558,-0.0966,-0.9576
71977,0.1559,-0.0966,-0.9576
71985,0.1559,-0.0966,-0.9576
71993,0.1560,-0.0967,-0.9576
72001,0.1560,-0.0967,-0.9576
72009,0.1560,-0.0967,-0.9576
72019,0.1560,-0.0967,-0.9575
72027,0.1561,-0.0967,-0.9575
72035,0.1561,-0.0968,-0.9575
72043,0.1561,-0.0968,-0.9575
72051,0.1561,-0.0968,-0.9575
72059,0.1561,-0.0968,-0.9575
72067,0.1562,-0.0968,-0.9575
72085,0.1562,-0.0968,-0.9574
72099,0.1562,-0.0968,-0.9574
72106,0.1562,-0.0968,-0.9574
72114,0.1562,-0.0968,-0.9573
72129,0.1562,-0.0968,-0.9573
72140,0.1562,-0.0968,-0.9572
72209,0.1558,-0.0967,-0.9569
72219,0.1558,-0.0967,-0.9569
72228,0.1556,-0.0967,-0.9569
72236,0.1556,-0.0966,-0.9569
72243,0.1556,-0.0966,-0.9569
72259,0.1556,-0.0966,-0.9569
72267,0.1555,-0.0966,-0.9569
72275,0.1555,-0.0964,-0.9570
72285,0.1555,-0.0964,-0.9570
72293,0.1555,-0.0964,-0.9572
72301,0.1555,-0.0964,-0.9572
72309,0.1554,-0.0964,-0.9572
72317,0.1554,-0.0964,-0.9573
72325,0.1554,-0.0963,-0.9573
72333,0.1554,-0.0963,-0.9573
72343,0.1554,-0.0963,-0.9574
72379,0.1555,-0.0963,-0.9574
72387,0.1555,-0.0963,-0.9574
72395,0.1555,-0.0963,-0.9574
72403,0.1555,-0.0964,-0.9574
72411,0.1555,-0.0964,-0.9574
72421,0.1556,-0.0964,-0.9574
72429,0.1556,-0.0964,-0.9574
72437,0.1556,-0.0964,-0.9574
72445,0.1556,-0.0964,-0.9574
72453,0.1558,-0.0964,-0.9574
72461,0.1558,-0.0966,-0.9574
72469,0.1558,-0.0966,-0.9574
72477,0.1558,-0.0966,-0.9574
72487,0.1559,-0.0966,-0.9574
72495,0.1559,-0.0966,-0.9575
72503,0.1559,-0.0967,-0.9575
72511,0.1559,-0.0967,-0.9575
72519,0.1559,-0.0967,-0.9575
72527,0.1559,-0.0967,-0.9575
72536,0.1559,-0.0967,-0.9576
72546,0.1559,-0.0968,-0.9576
72580,0.1558,-0.0969,-0.9578
72588,0.1556,-0.0969,-0.9579
72596,0.1556,-0.0969,-0.9579
72604,0.1556,-0.0969,-0.9579
72612,0.1556,-0.0969,-0.9579
72622,0.1556,-0.0969,-0.9579
72630,0.1556,-0.0969,-0.9579
72645,0.1558,-0.0969,-0.9579
72652,0.1558,-0.0968,-0.9579
72660,0.1558,-0.0968,-0.9579
72668,0.1558,-0.0968,-0.9579
72676,0.1558,-0.0967,-0.9579
72686,0.1559,-0.0967,-0.9579
72694,0.1559,-0.0967,-0.9578
72702,0.1559,-0.0966,-0.9578
72722,0.1559,-0.0964,-0.9578
72730,0.1559,-0.0964,-0.9576
72738,0.1559,-0.0963,-0.9576
72774,0.1560,-0.0961,-0.9575
72782,0.1560,-0.0961,-0.9575
72790,0.1560,-0.0961,-0.9575
72798,0.1560,-0.0961,-0.9575
72806,0.1560,-0.0961,-0.9575
72816,0.1560,-0.0961,-0.9575
72824,0.1560,-0.0961,-0.9575
72832,0.1559,-0.0961,-0.9575
72841,0.1559,-0.0962,-0.9575
72849,0.1559,-0.0962,-0.9575
72857,0.1559,-0.0962,-0.9575
72865,0.1559,-0.0962,-0.9576
72873,0.1559,-0.0962,-0.9576
72883,0.1559,-0.0962,-0.9576
72891,0.1559,-0.0962,-0.9576
72899,0.1559,-0.0963,-0.9576
72907,0.1559,-0.0963,-0.9576
72915,0.1559,-0.0963,-0.9578
72923,0.1559,-0.0963,-0.9578
72931,0.1559,-0.0963,-0.9578
72939,0.1559,-0.0963,-0.9578
72975,0.1559,-0.0963,-0.9578
72983,0.1559,-0.0963,-0.9578
72991,0.1559,-0.0963,-0.9578
72999,0.1559,-0.0963,-0.9579
73007,0.1559,-0.0963,-0.9579
73017,0.1559,-0.0963,-0.9578
73025,0.1559,-0.0963,-0.9578
73033,0.1559,-0.0963,-0.9578
73041,0.1559,-0.0963,-0.9578
73049,0.1559,-0.0963,-0.9578
73057,0.1559,-0.0963,-0.9578
73065,0.1559,-0.0963,-0.9578
73083,0.1559,-0.0963,-0.9578
73097,0.1559,-0.0963,-0.9578
73104,0.1559,-0.0963,-0.9576
73112,0.1559,-0.0963,-0.9576
73126,0.1559,-0.0963,-0.9576
73140,0.1559,-0.0964,-0.9576
73151,0.1560,-0.0964,-0.9576
73161,0.1560,-0.0966,-0.9575
73168,0.1560,-0.0966,-0.9575
73184,0.1560,-0.0966,-0.9575
73192,0.1560,-0.0966,-0.9575
73200,0.1560,-0.0967,-0.9574
73262,0.1559,-0.0968,-0.9572
73273,0.1559,-0.0968,-0.9572
73281,0.1559,-0.0968,-0.9570
73289,0.1559,-0.0968,-0.9570
73297,0.1559,-0.0968,-0.9570
73305,0.1560,-0.0968,-0.9570
73313,0.1560,-0.0968,-0.9570
73321,0.1560,-0.0967,-0.9569
73329,0.1560,-0.0967,-0.9569
73339,0.1560,-0.0967,-0.9569
73347,0.1560,-0.0966,-0.9569
73355,0.1560,-0.0966,-0.9570
73365,0.1560,-0.0964,-0.9570
73373,0.1560,-0.0964,-0.9570
73381,0.1560,-0.0964,-0.9572
73389,0.1560,-0.0963,-0.9572
73397,0.1560,-0.0963,-0.9572
73433,0.1560,-0.0961,-0.9575
73441,0.1561,-0.0961,-0.9575
73450,0.1561,-0.0961,-0.9575
73458,0.1561,-0.0961,-0.9576
73468,0.1561,-0.0961,-0.9576
73476,0.1561,-0.0961,-0.9576
73484,0.1561,-0.0961,-0.9576
73492,0.1561,-0.0961,-0.9576
73500,0.1561,-0.0961,-0.9576
73507,0.1561,-0.0961,-0.9576
73523,0.1561,-0.0962,-0.9575
73546,0.1561,-0.0963,-0.9575
73554,0.1561,-0.0963,-0.9574
73562,0.1561,-0.0963,-0.9574
73572,0.1560,-0.0963,-0.9574
73580,0.1560,-0.0964,-0.9574
73588,0.1560,-0.0964,-0.9574
73621,0.1559,-0.0964,-0.9574
73629,0.1559,-0.0964,-0.9574
73637,0.1559,-0.0964,-0.9574
73645,0.1559,-0.0964,-0.9574
73653,0.1558,-0.0963,-0.9574
73663,0.1558,-0.0963,-0.9573
73670,0.1558,-0.0963,-0.9573
73678,0.1558,-0.0963,-0.9573
73697,0.1558,-0.0963,-0.9573
73705,0.1558,-0.0962,-0.9573
73713,0.1558,-0.0962,-0.9573
73721,0.1558,-0.0962,-0.9573
73735,0.1558,-0.0962,-0.9573
73743,0.1558,-0.0962,-0.9573
73752,0.1558,-0.0962,-0.9574
73760,0.1558,-0.0962,-0.9574
73768,0.1559,-0.0962,-0.9574
73778,0.1559,-0.0962,-0.9574
73786,0.1559,-0.0962,-0.9574
73819,0.1560,-0.0962,-0.9573
73827,0.1560,-0.0962,-0.9573
73835,0.1561,-0.0963,-0.9573
73843,0.1561,-0.0963,-0.9573
73851,0.1561,-0.0963,-0.9573
73861,0.1561,-0.0963,-0.9573
73869,0.1561,-0.0964,-0.9573
73877,0.1561,-0.0964,-0.9573
73885,0.1560,-0.0964,-0.9573
73893,0.1560,-0.0964,-0.9573
73901,0.1560,-0.0966,-0.9573
73909,0.1560,-0.0966,-0.9574
73917,0.1560,-0.0966,-0.9574
73927,0.1560,-0.0966,-0.9574
73935,0.1559,-0.0966,-0.9574
73943,0.1559,-0.0966,-0.9574
73951,0.1559,-0.0966,-0.9575
73959,0.1559,-0.0966,-0.9575
73967,0.1559,-0.0966,-0.9575
73975,0.1559,-0.0964,-0.9575
73985,0.1559,-0.0964,-0.9576
74019,0.1559,-0.0964,-0.9578
74027,0.1560,-0.0964,-0.9578
74035,0.1560,-0.0964,-0.9578
74043,0.1560,-0.0964,-0.9578
74051,0.1560,-0.0964,-0.9578
74062,0.1560,-0.0966,-0.9576
74069,0.1560,-0.0966,-0.9576
74085,0.1561,-0.0966,-0.9576
74099,0.1561,-0.0966,-0.9575
74106,0.1561,-0.0966,-0.9575
74114,0.1561,-0.0966,-0.9574
74124,0.1561,-0.0966,-0.9574
74138,0.1561,-0.0966,-0.9573
74145,0.1561,-0.0966,-0.9573
74153,0.1561,-0.0966,-0.9572
74167,0.1561,-0.0966,-0.9572
74175,0.1561,-0.0966,-0.9572
74185,0.1560,-0.0966,-0.9570
74196,0.1560,-0.0966,-0.9570
74204,0.1560,-0.0966,-0.9570
74212,0.1559,-0.0966,-0.9569
74220,0.1559,-0.0967,-0.9569
74228,0.1559,-0.0967,-0.9569
74236,0.1559,-0.0967,-0.9569
74298,0.1559,-0.0967,-0.9570
74308,0.1559,-0.0967,-0.9570
74316,0.1559,-0.0967,-0.9570
74324,0.1560,-0.0967,-0.9570
74332,0.1560,-0.0967,-0.9569
74340,0.1561,-0.0967,-0.9569
74361,0.1562,-0.0967,-0.9569
74372,0.1562,-0.0967,-0.9569
74380,0.1562,-0.0967,-0.9569
74388,0.1564,-0.0967,-0.9569
74398,0.1564,-0.0967,-0.9569
74406,0.1564,-0.0967,-0.9570
74414,0.1564,-0.0967,-0.9570
74422,0.1564,-0.0968,-0.9570
74458,0.1562,-0.0968,-0.9572
74466,0.1562,-0.0968,-0.9572
74474,0.1562,-0.0968,-0.9572
74482,0.1561,-0.0968,-0.9573
74490,0.1561,-0.0968,-0.9573
74500,0.1561,-0.0968,-0.9573
74507,0.1561,-0.0968,-0.9573
74523,0.1560,-0.0968,-0.9573
74531,0.1560,-0.0967,-0.9573
74539,0.1560,-0.0967,-0.9573
74547,0.1560,-0.0967,-0.9573
74555,0.1559,-0.0967,-0.9573
74565,0.1559,-0.0966,-0.9573
74573,0.1559,-0.0966,-0.9573
74581,0.1559,-0.0966,-0.9573
74589,0.1558,-0.0966,-0.9573
74599,0.1558,-0.0966,-0.9573
74606,0.1558,-0.0966,-0.9573
74622,0.1558,-0.0966,-0.9573
74655,0.1556,-0.0967,-0.9574
74663,0.1556,-0.0967,-0.9574
74672,0.1556,-0.0968,-0.9574
74686,0.1556,-0.0968,-0.9574
74696,0.1556,-0.0968,-0.9574
74704,0.1556,-0.0968,-0.9574
74712,0.1556,-0.0968,-0.9574
74720,0.1556,-0.0968,-0.9574
74728,0.1556,-0.0968,-0.9574
74736,0.1558,-0.0968,-0.9574
74744,0.1558,-0.0968,-0.9574
74752,0.1558,-0.0968,-0.9575
74762,0.1558,-0.0968,-0.9575
74770,0.1559,-0.0968,-0.9575
74778,0.1559,-0.0968,-0.9575
74786,0.1559,-0.0968,-0.9575
74794,0.1559,-0.0968,-0.9575
74804,0.1560,-0.0968,-0.9575
74812,0.1560,-0.0968,-0.9576
74820,0.1560,-0.0968,-0.9576
74853,0.1562,-0.0966,-0.9576
74861,0.1562,-0.0966,-0.9578
74869,0.1562,-0.0966,-0.9578
74877,0.1562,-0.0964,-0.9578
74885,0.1564,-0.0964,-0.9578
74895,0.1564,-0.0964,-0.9578
74903,0.1564,-0.0963,-0.9578
74911,0.1564,-0.0963,-0.9579
74919,0.1564,-0.0963,-0.9579
74927,0.1564,-0.0962,-0.9579
74935,0.1564,-0.0962,-0.9579
74943,0.1564,-0.0962,-0.9579
74951,0.1564,-0.0962,-0.9579
74961,0.1562,-0.0962,-0.9578
74969,0.1562,-0.0962,-0.9578
74978,0.1562,-0.0962,-0.9576
74986,0.1562,-0.0962,-0.9576
74994,0.1561,-0.0962,-0.9576
75002,0.1561,-0.0962,-0.9575
75012,0.1560,-0.0962,-0.9574
75046,0.1559,-0.0962,-0.9573
75054,0.1559,-0.0962,-0.9573
75062,0.1559,-0.0963,-0.9572
75070,0.1559,-0.0963,-0.9572
75077,0.1559,-0.0963,-0.9572
75087,0.1559,-0.0963,-0.9572
75100,0.1559,-0.0963,-0.9572
75114,0.1559,-0.0964,-0.9572
75122,0.1559,-0.0964,-0.9572
75137,0.1560,-0.0964,-0.9573
75152,0.1560,-0.0966,-0.9573
75160,0.1560,-0.0966,-0.9573
75183,0.1561,-0.0966,-0.9574
75190,0.1562,-0.0966,-0.9574
75198,0.1562,-0.0966,-0.9574
75206,0.1562,-0.0966,-0.9574
75271,0.1564,-0.0966,-0.9572
75284,0.1564,-0.0966,-0.9572
75292,0.1564,-0.0966,-0.9570
75300,0.1562,-0.0964,-0.9570
75308,0.1562,-0.0964,-0.9570
75316,0.1562,-0.0964,-0.9570
75324,0.1562,-0.0964,-0.9570
75332,0.1562,-0.0964,-0.9570
75342,0.1561,-0.0963,-0.9570
75350,0.1561,-0.0963,-0.9570
75358,0.1560,-0.0963,-0.9572
75366,0.1560,-0.0963,-0.9572
75374,0.1560,-0.0963,-0.9572
75382,0.1560,-0.0962,-0.9572
75390,0.1559,-0.0962,-0.9572
75398,0.1559,-0.0962,-0.9572
75408,0.1559,-0.0962,-0.9573
75418,0.1559,-0.0962,-0.9573
75426,0.1558,-0.0961,-0.9573
75434,0.1558,-0.0961,-0.9573
75442,0.1558,-0.0961,-0.9573
75450,0.1558,-0.0961,-0.9574
75457,0.1558,-0.0961,-0.9574
75498,0.1558,-0.0962,-0.9574
75506,0.1559,-0.0962,-0.9574
75514,0.1559,-0.0962,-0.9574
75522,0.1559,-0.0962,-0.9575
75530,0.1559,-0.0963,-0.9575
75542,0.1560,-0.0963,-0.9575
75550,0.1560,-0.0963,-0.9575
75558,0.1561,-0.0963,-0.9575
75566,0.1561,-0.0963,-0.9575
75574,0.1561,-0.0963,-0.9575
75583,0.1561,-0.0964,-0.9575
75591,0.1561,-0.0964,-0.9575
75601,0.1561,-0.0964,-0.9574
75609,0.1561,-0.0964,-0.9575
75619,0.1561,-0.0964,-0.9575
75627,0.1561,-0.0964,-0.9575
75635,0.1561,-0.0964,-0.9575
75643,0.1561,-0.0963,-0.9575
75651,0.1561,-0.0963,-0.9575
75659,0.1561,-0.0963,-0.9575
75692,0.1560,-0.0963,-0.9575
75711,0.1560,-0.0962,-0.9575
75719,0.1560,-0.0962,-0.9575
75727,0.1560,-0.0962,-0.9575
75741,0.1560,-0.0961,-0.9575
75749,0.1560,-0.0961,-0.9575
75757,0.1560,-0.0961,-0.9574
75765,0.1560,-0.0961,-0.9574
75773,0.1560,-0.0961,-0.9574
75781,0.1560,-0.0961,-0.9574
75789,0.1560,-0.0961,-0.9573
75799,0.1560,-0.0961,-0.9573
75807,0.1560,-0.0961,-0.9573
75815,0.1560,-0.0961,-0.9573
75825,0.1560,-0.0961,-0.9572
75833,0.1561,-0.0962,-0.9572
75841,0.1561,-0.0962,-0.9572
75849,0.1561,-0.0962,-0.9572
75857,0.1561,-0.0963,-0.9572
75890,0.1561,-0.0966,-0.9572
75899,0.1561,-0.0967,-0.9572
75907,0.1561,-0.0968,-0.9572
75915,0.1561,-0.0968,-0.9572
75923,0.1561,-0.0969,-0.9572
75933,0.1561,-0.0969,-0.9572
75941,0.1560,-0.0969,-0.9572
75949,0.1560,-0.0970,-0.9572
75957,0.1560,-0.0970,-0.9573
75965,0.1560,-0.0970,-0.9573
75973,0.1560,-0.0972,-0.9573
75981,0.1559,-0.0972,-0.9573
76003,0.1559,-0.0970,-0.9574
76013,0.1558,-0.0970,-0.9574
76021,0.1558,-0.0970,-0.9574
76031,0.1558,-0.0969,-0.9575
76039,0.1558,-0.0969,-0.9575
76047,0.1558,-0.0970,-0.9576
76055,0.1558,-0.0973,-0.9576
76063,0.1559,-0.0978,-0.9578
76071,0.1559,-0.0983,-0.9580
76104,0.1559,-0.1016,-0.9592
76117,0.1559,-0.1028,-0.9597
76131,0.1561,-0.1052,-0.9608
76138,0.1561,-0.1063,-0.9614
76148,0.1562,-0.1071,-0.9620
76162,0.1564,-0.1073,-0.9630
76169,0.1564,-0.1067,-0.9633
76177,0.1564,-0.1053,-0.9635
76185,0.1564,-0.1035,-0.9636
76192,0.1564,-0.1035,-0.9636
76201,0.1565,-0.0983,-0.9634
76211,0.1566,-0.0948,-0.9630
76224,0.1566,-0.0911,-0.9626
76235,0.1567,-0.0822,-0.9615
76243,0.1567,-0.0770,-0.9607
76251,0.1567,-0.0715,-0.9598
76258,0.1567,-0.0715,-0.9598
76328,0.1526,-0.0183,-0.9497
76338,0.1519,-0.0162,-0.9495
76346,0.1512,-0.0156,-0.9496
76354,0.1506,-0.0167,-0.9500
76362,0.1503,-0.0193,-0.9504
76370,0.1499,-0.0232,-0.9513
76378,0.1497,-0.0284,-0.9521
76386,0.1495,-0.0347,-0.9532
76394,0.1495,-0.0417,-0.9543
76404,0.1497,-0.0494,-0.9553
76412,0.1500,-0.0577,-0.9564
76420,0.1505,-0.0662,-0.9574
76428,0.1512,-0.0747,-0.9584
76438,0.1521,-0.0831,-0.9591
76446,0.1531,-0.0912,-0.9597
76454,0.1542,-0.0988,-0.9603
76462,0.1554,-0.1056,-0.9607
76495,0.1599,-0.1245,-0.9609
76504,0.1609,-0.1270,-0.9607
76512,0.1617,-0.1285,-0.9604
76520,0.1625,-0.1292,-0.9602
76528,0.1630,-0.1290,-0.9598
76538,0.1633,-0.1281,-0.9595
76546,0.1636,-0.1265,-0.9590
76554,0.1637,-0.1244,-0.9586
76562,0.1636,-0.1219,-0.9581
76570,0.1635,-0.1193,-0.9578
76578,0.1632,-0.1163,-0.9574
76586,0.1628,-0.1134,-0.9572
76594,0.1625,-0.1105,-0.9569
76606,0.1615,-0.1050,-0.9564
76613,0.1615,-0.1050,-0.9564
76629,0.1604,-0.1001,-0.9563
76639,0.1592,-0.0962,-0.9563
76646,0.1592,-0.0962,-0.9563
76662,0.1581,-0.0930,-0.9565
76695,0.1561,-0.0898,-0.9570
76703,0.1559,-0.0898,-0.9572
76718,0.1556,-0.0908,-0.9574
76734,0.1556,-0.0925,-0.9574
76742,0.1558,-0.0936,-0.9574
76750,0.1559,-0.0947,-0.9574
76758,0.1560,-0.0958,-0.9574
76766,0.1562,-0.0970,-0.9573
76774,0.1565,-0.0980,-0.9573
76782,0.1566,-0.0991,-0.9572
76790,0.1569,-0.1000,-0.9570
76800,0.1571,-0.1008,-0.9570
76821,0.1577,-0.1027,-0.9568
76828,0.1577,-0.1027,-0.9568
76846,0.1582,-0.1035,-0.9567
76854,0.1583,-0.1035,-0.9565
76887,0.1584,-0.1029,-0.9565
76894,0.1584,-0.1029,-0.9565
76910,0.1584,-0.1022,-0.9565
76918,0.1584,-0.1018,-0.9565
76928,0.1583,-0.1008,-0.9565
76936,0.1583,-0.1005,-0.9565
76944,0.1582,-0.1005,-0.9565
76952,0.1582,-0.1000,-0.9565
76960,0.1581,-0.0995,-0.9567
76968,0.1580,-0.0990,-0.9567
76976,0.1580,-0.0985,-0.9567
76984,0.1578,-0.0981,-0.9567
76994,0.1577,-0.0977,-0.9568
77002,0.1577,-0.0974,-0.9568
77010,0.1576,-0.0974,-0.9568
77018,0.1576,-0.0973,-0.9568
77026,0.1575,-0.0972,-0.9568
77034,0.1575,-0.0972,-0.9569
77042,0.1575,-0.0972,-0.9569
77052,0.1573,-0.0974,-0.9569
77086,0.1575,-0.0984,-0.9568
77099,0.1575,-0.0986,-0.9568
77114,0.1576,-0.0994,-0.9568
77124,0.1576,-0.0997,-0.9567
77139,0.1577,-0.1005,-0.9567
77153,0.1578,-0.1011,-0.9565
77161,0.1580,-0.1013,-0.9565
77169,0.1580,-0.1014,-0.9565
77177,0.1581,-0.1017,-0.9564
77187,0.1582,-0.1017,-0.9564
77195,0.1582,-0.1018,-0.9564
77203,0.1583,-0.1018,-0.9564
77211,0.1583,-0.1018,-0.9563
77219,0.1583,-0.1017,-0.9563
77227,0.1584,-0.1017,-0.9563
77241,0.1584,-0.1016,-0.9563
77251,0.1586,-0.1013,-0.9562
77262,0.1586,-0.1013,-0.9562
77270,0.1586,-0.1012,-0.9562
77278,0.1586,-0.1012,-0.9562
77286,0.1586,-0.1012,-0.9562
77294,0.1587,-0.1012,-0.9562
77302,0.1587,-0.1012,-0.9562
77310,0.1587,-0.1012,-0.9562
77380,0.1592,-0.1022,-0.9562
77390,0.1592,-0.1022,-0.9563
77398,0.1592,-0.1022,-0.9563
77406,0.1592,-0.1022,-0.9563
77415,0.1592,-0.1019,-0.9564
77423,0.1592,-0.1019,-0.9564
77431,0.1592,-0.1019,-0.9564
77439,0.1591,-0.1018,-0.9565
77447,0.1589,-0.1018,-0.9565
77457,0.1588,-0.1018,-0.9567
77467,0.1587,-0.1018,-0.9567
77475,0.1586,-0.1018,-0.9567
77483,0.1584,-0.1018,-0.9568
77491,0.1583,-0.1019,-0.9568
77499,0.1582,-0.1019,-0.9568
77507,0.1582,-0.1021,-0.9568
77515,0.1581,-0.1021,-0.9568
77548,0.1580,-0.1021,-0.9568
77555,0.1580,-0.1021,-0.9568
77571,0.1580,-0.1019,-0.9568
77579,0.1580,-0.1019,-0.9568
77589,0.1580,-0.1017,-0.9568
77596,0.1580,-0.1017,-0.9568
77612,0.1581,-0.1014,-0.9568
77620,0.1581,-0.1012,-0.9567
77642,0.1582,-0.1008,-0.9567
77655,0.1582,-0.1006,-0.9567
77662,0.1582,-0.1006,-0.9567
77672,0.1582,-0.1003,-0.9567
77679,0.1582,-0.1003,-0.9567
77695,0.1582,-0.1002,-0.9567
77703,0.1582,-0.1001,-0.9567
77747,0.1581,-0.1010,-0.9567
77756,0.1581,-0.1012,-0.9567
77764,0.1581,-0.1016,-0.9565
77778,0.1581,-0.1018,-0.9565
77786,0.1581,-0.1021,-0.9565
77794,0.1581,-0.1023,-0.9564
77802,0.1581,-0.1024,-0.9564
77810,0.1581,-0.1025,-0.9564
77818,0.1581,-0.1027,-0.9564
77826,0.1580,-0.1027,-0.9564
77836,0.1580,-0.1027,-0.9564
77844,0.1580,-0.1027,-0.9564
77852,0.1580,-0.1027,-0.9564
77860,0.1580,-0.1028,-0.9564
77868,0.1580,-0.1029,-0.9564
77878,0.1580,-0.1033,-0.9564
77886,0.1580,-0.1036,-0.9564
77894,0.1580,-0.1036,-0.9564
77927,0.1581,-0.1060,-0.9563
77935,0.1581,-0.1060,-0.9563
77943,0.1582,-0.1066,-0.9563
77951,0.1582,-0.1073,-0.9562
77959,0.1582,-0.1080,-0.9562
77969,0.1583,-0.1096,-0.9559
77977,0.1584,-0.1104,-0.9558
77985,0.1584,-0.1113,-0.9557
77993,0.1584,-0.1113,-0.9557
78001,0.1586,-0.1123,-0.9556
78009,0.1587,-0.1133,-0.9553
78017,0.1589,-0.1145,-0.9551
78025,0.1592,-0.1160,-0.9547
78035,0.1599,-0.1188,-0.9541
78043,0.1603,-0.1200,-0.9539
78051,0.1603,-0.1200,-0.9536
78060,0.1609,-0.1213,-0.9534
78067,0.1609,-0.1213,-0.9534
78085,0.1611,-0.1198,-0.9532
78125,0.1603,-0.1119,-0.9543
78133,0.1599,-0.1097,-0.9547
78148,0.1591,-0.1053,-0.9554
78164,0.1581,-0.1016,-0.9562
78172,0.1577,-0.1001,-0.9565
78180,0.1573,-0.0989,-0.9568
78188,0.1570,-0.0980,-0.9570
78196,0.1566,-0.0974,-0.9573
78204,0.1564,-0.0972,-0.9574
78212,0.1562,-0.0972,-0.9575
78220,0.1561,-0.0973,-0.9576
78230,0.1560,-0.0977,-0.9576
78238,0.1559,-0.0981,-0.9576
78254,0.1560,-0.0994,-0.9576
78261,0.1561,-0.1001,-0.9576
78269,0.1561,-0.1007,-0.9575
78277,0.1564,-0.1013,-0.9574
78288,0.1565,-0.1018,-0.9574
78350,0.1581,-0.1049,-0.9565
78360,0.1582,-0.1052,-0.9564
78369,0.1584,-0.1055,-0.9563
78377,0.1586,-0.1058,-0.9563
78385,0.1587,-0.1062,-0.9562
78393,0.1589,-0.1064,-0.9561
78401,0.1589,-0.1067,-0.9559
78409,0.1591,-0.1068,-0.9559
78417,0.1592,-0.1069,-0.9558
78427,0.1592,-0.1069,-0.9558
78435,0.1592,-0.1067,-0.9558
78457,0.1591,-0.1057,-0.9558
78465,0.1589,-0.1052,-0.9558
78472,0.1589,-0.1052,-0.9558
78516,0.1584,-0.1028,-0.9561
78524,0.1583,-0.1025,-0.9562
78532,0.1583,-0.1023,-0.9562
78540,0.1582,-0.1022,-0.9562
78548,0.1581,-0.1021,-0.9563
78558,0.1581,-0.1019,-0.9563
78566,0.1581,-0.1018,-0.9563
78574,0.1580,-0.1018,-0.9563
78582,0.1580,-0.1018,-0.9564
78590,0.1580,-0.1018,-0.9564
78598,0.1580,-0.1018,-0.9564
78606,0.1580,-0.1019,-0.9564
78614,0.1578,-0.1021,-0.9564
78624,0.1578,-0.1022,-0.9564
78632,0.1578,-0.1023,-0.9564
78640,0.1578,-0.1024,-0.9564
78648,0.1578,-0.1025,-0.9564
78656,0.1580,-0.1028,-0.9564
78664,0.1580,-0.1029,-0.9564
78673,0.1580,-0.1030,-0.9563
78681,0.1581,-0.1031,-0.9563
78719,0.1583,-0.1034,-0.9563
78727,0.1584,-0.1034,-0.9563
78735,0.1584,-0.1034,-0.9563
78743,0.1586,-0.1034,-0.9563
78753,0.1586,-0.1034,-0.9563
78768,0.1587,-0.1035,-0.9563
78775,0.1588,-0.1035,-0.9563
78783,0.1588,-0.1036,-0.9563
78791,0.1588,-0.1036,-0.9563
78799,0.1589,-0.1036,-0.9563
78807,0.1589,-0.1036,-0.9563
78817,0.1589,-0.1036,-0.9563
78825,0.1589,-0.1036,-0.9563
78833,0.1589,-0.1036,-0.9563
78841,0.1589,-0.1036,-0.9563
78849,0.1588,-0.1035,-0.9563
78857,0.1588,-0.1035,-0.9563
78865,0.1588,-0.1035,-0.9563
78873,0.1588,-0.1035,-0.9563
78883,0.1588,-0.1034,-0.9563
78893,0.1588,-0.1034,-0.9563
78901,0.1587,-0.1034,-0.9563
78909,0.1587,-0.1033,-0.9563
78917,0.1587,-0.1033,-0.9563
78925,0.1587,-0.1031,-0.9563
78933,0.1586,-0.1031,-0.9563
78941,0.1586,-0.1031,-0.9563
78974,0.1586,-0.1035,-0.9563
78983,0.1586,-0.1036,-0.9562
78991,0.1587,-0.1038,-0.9562
78999,0.1587,-0.1038,-0.9562
79007,0.1587,-0.1039,-0.9562
79017,0.1587,-0.1040,-0.9562
79025,0.1588,-0.1041,-0.9561
79033,0.1588,-0.1042,-0.9561
79041,0.1588,-0.1045,-0.9561
79049,0.1589,-0.1046,-0.9559
79057,0.1589,-0.1049,-0.9559
79065,0.1589,-0.1051,-0.9558
79073,0.1591,-0.1053,-0.9558
79083,0.1591,-0.1055,-0.9558
79099,0.1592,-0.1060,-0.9557
79106,0.1592,-0.1061,-0.9557
79114,0.1593,-0.1063,-0.9557
79129,0.1594,-0.1066,-0.9556
79136,0.1594,-0.1067,-0.9556
79169,0.1595,-0.1071,-0.9556
79177,0.1595,-0.1071,-0.9556
79185,0.1595,-0.1071,-0.9556
79193,0.1595,-0.1071,-0.9556
79201,0.1595,-0.1071,-0.9556
79211,0.1595,-0.1069,-0.9556
79219,0.1595,-0.1069,-0.9554
79227,0.1595,-0.1069,-0.9554
79235,0.1595,-0.1068,-0.9554
79243,0.1594,-0.1068,-0.9554
79251,0.1594,-0.1067,-0.9556
79275,0.1594,-0.1066,-0.9556
79284,0.1594,-0.1066,-0.9556
79294,0.1594,-0.1064,-0.9557
79305,0.1593,-0.1064,-0.9557
79313,0.1593,-0.1063,-0.9557
79321,0.1593,-0.1063,-0.9558
79329,0.1592,-0.1062,-0.9558
79337,0.1592,-0.1062,-0.9558
79399,0.1591,-0.1060,-0.9559
79409,0.1591,-0.1061,-0.9559
79417,0.1591,-0.1061,-0.9558
79425,0.1591,-0.1061,-0.9558
79433,0.1591,-0.1061,-0.9558
79441,0.1591,-0.1061,-0.9558
79449,0.1591,-0.1061,-0.9558
79457,0.1591,-0.1060,-0.9558
79465,0.1591,-0.1058,-0.9558
79475,0.1591,-0.1057,-0.9558
79483,0.1591,-0.1056,-0.9558
79491,0.1591,-0.1055,-0.9558
79499,0.1591,-0.1053,-0.9558
79509,0.1591,-0.1053,-0.9558
79517,0.1591,-0.1052,-0.9558
79525,0.1591,-0.1051,-0.9558
79533,0.1591,-0.1051,-0.9559
79566,0.1589,-0.1051,-0.9561
79574,0.1589,-0.1051,-0.9561
79582,0.1589,-0.1051,-0.9561
79590,0.1591,-0.1051,-0.9562
79599,0.1591,-0.1051,-0.9562
79609,0.1591,-0.1051,-0.9562
79617,0.1592,-0.1051,-0.9562
79625,0.1592,-0.1050,-0.9563
79633,0.1592,-0.1049,-0.9563
79641,0.1593,-0.1047,-0.9563
79649,0.1593,-0.1046,-0.9564
79657,0.1593,-0.1044,-0.9564
79665,0.1593,-0.1042,-0.9564
79675,0.1593,-0.1042,-0.9564
79683,0.1593,-0.1041,-0.9564
79691,0.1593,-0.1041,-0.9564
79699,0.1593,-0.1042,-0.9564
79707,0.1593,-0.1044,-0.9564
79717,0.1593,-0.1044,-0.9564
79725,0.1593,-0.1046,-0.9564
79733,0.1593,-0.1047,-0.9564
79780,0.1592,-0.1061,-0.9562
79794,0.1592,-0.1062,-0.9562
79808,0.1592,-0.1066,-0.9562
79816,0.1592,-0.1067,-0.9562
79824,0.1592,-0.1068,-0.9562
79832,0.1592,-0.1071,-0.9562
79840,0.1592,-0.1072,-0.9562
79848,0.1593,-0.1074,-0.9562
79856,0.1593,-0.1077,-0.9562
79866,0.1593,-0.1079,-0.9561
79874,0.1594,-0.1083,-0.9561
79882,0.1594,-0.1085,-0.9561
79890,0.1594,-0.1086,-0.9559
79898,0.1595,-0.1089,-0.9559
79907,0.1595,-0.1090,-0.9559
79915,0.1595,-0.1091,-0.9559
79925,0.1595,-0.1093,-0.9559
79958,0.1597,-0.1091,-0.9559
79966,0.1597,-0.1091,-0.9559
79974,0.1597,-0.1090,-0.9561
79982,0.1597,-0.1089,-0.9561
79990,0.1597,-0.1088,-0.9561
80000,0.1597,-0.1088,-0.9561
80008,0.1597,-0.1086,-0.9561
80016,0.1597,-0.1086,-0.9559
80024,0.1597,-0.1086,-0.9559
80032,0.1597,-0.1088,-0.9559
80040,0.1597,-0.1089,-0.9558
80048,0.1597,-0.1091,-0.9558
80056,0.1597,-0.1094,-0.9557
80066,0.1597,-0.1097,-0.9557
80083,0.1597,-0.1105,-0.9556
80106,0.1595,-0.1117,-0.9553
80120,0.1594,-0.1124,-0.9552
80156,0.1593,-0.1135,-0.9551
80164,0.1593,-0.1136,-0.9550
80178,0.1594,-0.1136,-0.9550
80186,0.1594,-0.1136,-0.9548
80196,0.1594,-0.1136,-0.9548
80204,0.1595,-0.1135,-0.9548
80213,0.1595,-0.1135,-0.9548
80221,0.1597,-0.1133,-0.9548
80229,0.1597,-0.1132,-0.9548
80237,0.1597,-0.1128,-0.9548
80245,0.1598,-0.1124,-0.9548
80253,0.1598,-0.1119,-0.9550
80263,0.1598,-0.1113,-0.9551
80271,0.1599,-0.1107,-0.9551
80279,0.1599,-0.1101,-0.9552
80287,0.1600,-0.1095,-0.9552
80302,0.1602,-0.1089,-0.9553
80316,0.1602,-0.1088,-0.9553
80326,0.1600,-0.1089,-0.9553
80337,0.1599,-0.1091,-0.9553
80345,0.1598,-0.1094,-0.9554
80353,0.1597,-0.1096,-0.9554
80361,0.1595,-0.1100,-0.9554
80369,0.1595,-0.1104,-0.9554
80377,0.1595,-0.1107,-0.9553
80439,0.1602,-0.1149,-0.9543
80449,0.1603,-0.1155,-0.9541
80457,0.1604,-0.1160,-0.9540
80465,0.1605,-0.1166,-0.9539
80473,0.1606,-0.1172,-0.9537
80481,0.1608,-0.1178,-0.9536
80491,0.1608,-0.1183,-0.9535
80499,0.1609,-0.1189,-0.9534
80507,0.1609,-0.1194,-0.9532
80516,0.1609,-0.1199,-0.9531
80524,0.1610,-0.1204,-0.9531
80532,0.1610,-0.1206,-0.9530
80542,0.1610,-0.1208,-0.9530
80550,0.1610,-0.1211,-0.9529
80558,0.1610,-0.1211,-0.9530
80566,0.1609,-0.1211,-0.9530
80574,0.1608,-0.1210,-0.9531
80607,0.1606,-0.1196,-0.9535
80615,0.1606,-0.1193,-0.9535
80623,0.1608,-0.1188,-0.9535
80631,0.1609,-0.1183,-0.9535
80639,0.1610,-0.1179,-0.9535
80649,0.1610,-0.1174,-0.9535
80657,0.1611,-0.1171,-0.9535
80665,0.1613,-0.1168,-0.9535
80673,0.1613,-0.1165,-0.9535
80681,0.1614,-0.1162,-0.9535
80689,0.1614,-0.1160,-0.9535
80697,0.1614,-0.1157,-0.9536
80705,0.1615,-0.1155,-0.9536
80715,0.1615,-0.1152,-0.9537
80723,0.1615,-0.1149,-0.9539
80731,0.1614,-0.1145,-0.9539
80739,0.1614,-0.1141,-0.9541
80749,0.1614,-0.1138,-0.9542
80757,0.1613,-0.1135,-0.9543
80765,0.1613,-0.1132,-0.9545
80773,0.1611,-0.1129,-0.9546
80806,0.1608,-0.1121,-0.9552
80814,0.1606,-0.1118,-0.9553
80822,0.1606,-0.1116,-0.9554
80830,0.1605,-0.1113,-0.9556
80838,0.1604,-0.1112,-0.9557
80850,0.1603,-0.1111,-0.9558
80858,0.1603,-0.1111,-0.9558
80866,0.1602,-0.1111,-0.9558
80874,0.1602,-0.1111,-0.9558
80882,0.1600,-0.1112,-0.9558
80890,0.1600,-0.1115,-0.9558
80898,0.1599,-0.1116,-0.9558
80906,0.1599,-0.1119,-0.9557
80929,0.1600,-0.1133,-0.9553
80937,0.1600,-0.1136,-0.9552
80945,0.1602,-0.1141,-0.9550
80955,0.1602,-0.1145,-0.9548
80963,0.1603,-0.1149,-0.9547
80971,0.1603,-0.1151,-0.9546
81004,0.1605,-0.1155,-0.9542
81012,0.1605,-0.1155,-0.9542
81020,0.1605,-0.1155,-0.9542
81028,0.1605,-0.1155,-0.9542
81036,0.1605,-0.1154,-0.9542
81046,0.1605,-0.1152,-0.9542
81054,0.1606,-0.1151,-0.9542
81062,0.1606,-0.1150,-0.9543
81070,0.1606,-0.1147,-0.9543
81078,0.1606,-0.1146,-0.9545
81093,0.1606,-0.1143,-0.9546
81108,0.1608,-0.1141,-0.9547
81116,0.1608,-0.1141,-0.9547
81125,0.1609,-0.1143,-0.9547
81139,0.1609,-0.1144,-0.9547
81153,0.1609,-0.1147,-0.9547
81163,0.1609,-0.1150,-0.9547
81197,0.1609,-0.1161,-0.9546
81205,0.1609,-0.1165,-0.9545
81213,0.1609,-0.1167,-0.9545
81221,0.1609,-0.1169,-0.9543
81231,0.1609,-0.1171,-0.9543
81239,0.1609,-0.1173,-0.9542
81247,0.1609,-0.1174,-0.9542
81255,0.1609,-0.1174,-0.9541
81263,0.1609,-0.1176,-0.9541
81271,0.1609,-0.1176,-0.9541
81281,0.1609,-0.1176,-0.9540
81289,0.1609,-0.1174,-0.9540
81297,0.1609,-0.1173,-0.9540
81306,0.1609,-0.1171,-0.9540
81321,0.1608,-0.1167,-0.9541
81328,0.1608,-0.1163,-0.9541
81336,0.1608,-0.1161,-0.9541
81344,0.1608,-0.1158,-0.9541
81352,0.1608,-0.1156,-0.9542
81360,0.1608,-0.1154,-0.9542
81425,0.1605,-0.1134,-0.9548
81436,0.1604,-0.1132,-0.9550
81444,0.1604,-0.1130,-0.9550
81452,0.1605,-0.1130,-0.9550
81460,0.1605,-0.1129,-0.9550
81468,0.1605,-0.1130,-0.9550
81476,0.1605,-0.1132,-0.9548
81484,0.1606,-0.1133,-0.9548
81492,0.1606,-0.1135,-0.9547
81502,0.1606,-0.1138,-0.9547
81510,0.1606,-0.1141,-0.9546
81518,0.1608,-0.1145,-0.9545
81526,0.1608,-0.1150,-0.9543
81534,0.1608,-0.1154,-0.9543
81542,0.1608,-0.1158,-0.9542
81550,0.1608,-0.1162,-0.9542
81558,0.1608,-0.1166,-0.9542
81568,0.1608,-0.1169,-0.9542
81578,0.1608,-0.1172,-0.9542
81586,0.1608,-0.1174,-0.9542
81594,0.1608,-0.1176,-0.9542
81602,0.1608,-0.1176,-0.9542
81610,0.1609,-0.1176,-0.9542
81618,0.1609,-0.1176,-0.9543
81626,0.1610,-0.1174,-0.9543
81659,0.1611,-0.1166,-0.9547
81669,0.1611,-0.1163,-0.9547
81677,0.1611,-0.1161,-0.9548
81685,0.1611,-0.1160,-0.9548
81693,0.1611,-0.1157,-0.9550
81703,0.1611,-0.1152,-0.9551
81711,0.1611,-0.1152,-0.9551
81719,0.1611,-0.1151,-0.9551
81727,0.1610,-0.1149,-0.9551
81752,0.1610,-0.1145,-0.9552
81760,0.1609,-0.1144,-0.9552
81770,0.1609,-0.1144,-0.9552
81791,0.1609,-0.1146,-0.9551
81799,0.1609,-0.1146,-0.9551
81807,0.1609,-0.1147,-0.9551
81815,0.1609,-0.1149,-0.9551
81858,0.1609,-0.1155,-0.9551
81866,0.1609,-0.1156,-0.9551
81876,0.1609,-0.1157,-0.9550
81884,0.1609,-0.1157,-0.9550
81894,0.1609,-0.1157,-0.9548
81902,0.1609,-0.1157,-0.9548
81909,0.1609,-0.1157,-0.9548
81925,0.1608,-0.1155,-0.9548
81933,0.1608,-0.1154,-0.9548
81941,0.1606,-0.1152,-0.9548
81949,0.1606,-0.1152,-0.9548
81959,0.1606,-0.1152,-0.9548
81967,0.1605,-0.1152,-0.9548
81975,0.1605,-0.1152,-0.9547
81985,0.1606,-0.1156,-0.9547
81993,0.1606,-0.1157,-0.9547
82001,0.1606,-0.1161,-0.9546
82008,0.1606,-0.1161,-0.9546
82049,0.1609,-0.1177,-0.9545
82058,0.1609,-0.1180,-0.9543
82074,0.1609,-0.1187,-0.9543
82090,0.1610,-0.1191,-0.9543
82097,0.1610,-0.1194,-0.9543
82105,0.1611,-0.1195,-0.9542
82120,0.1611,-0.1195,-0.9542
82134,0.1613,-0.1194,-0.9543
82142,0.1613,-0.1193,-0.9543
82152,0.1613,-0.1191,-0.9543
82160,0.1613,-0.1189,-0.9545
82168,0.1613,-0.1187,-0.9545
82176,0.1613,-0.1185,-0.9545
82186,0.1613,-0.1183,-0.9546
82194,0.1613,-0.1180,-0.9546
82202,0.1613,-0.1178,-0.9546
82210,0.1613,-0.1177,-0.9546
82243,0.1611,-0.1173,-0.9546
82251,0.1611,-0.1172,-0.9545
82259,0.1611,-0.1172,-0.9545
82267,0.1611,-0.1172,-0.9545
82275,0.1611,-0.1172,-0.9543
82285,0.1611,-0.1173,-0.9543
82293,0.1611,-0.1173,-0.9543
82301,0.1611,-0.1174,-0.9542
82309,0.1611,-0.1174,-0.9542
82317,0.1610,-0.1176,-0.9542
82325,0.1610,-0.1176,-0.9542
82333,0.1610,-0.1176,-0.9542
82350,0.1610,-0.1176,-0.9542
82357,0.1610,-0.1176,-0.9543
82366,0.1610,-0.1176,-0.9543
82374,0.1609,-0.1174,-0.9543
82382,0.1609,-0.1173,-0.9545
82393,0.1609,-0.1172,-0.9545
82401,0.1609,-0.1169,-0.9545
82470,0.1606,-0.1150,-0.9546
82480,0.1608,-0.1149,-0.9545
82488,0.1608,-0.1147,-0.9543
82496,0.1608,-0.1147,-0.9542
82504,0.1609,-0.1147,-0.9542
82512,0.1609,-0.1147,-0.9542
82520,0.1610,-0.1147,-0.9541
82528,0.1610,-0.1147,-0.9540
82536,0.1610,-0.1146,-0.9540
82546,0.1611,-0.1146,-0.9540
82567,0.1611,-0.1145,-0.9540
82575,0.1611,-0.1145,-0.9540
82583,0.1611,-0.1144,-0.9541
82593,0.1611,-0.1143,-0.9541
82601,0.1611,-0.1141,-0.9542
82634,0.1611,-0.1140,-0.9546
82642,0.1611,-0.1141,-0.9546
82650,0.1611,-0.1143,-0.9546
82658,0.1611,-0.1144,-0.9547
82667,0.1611,-0.1145,-0.9547
82677,0.1611,-0.1147,-0.9547
82685,0.1611,-0.1149,-0.9547
82693,0.1613,-0.1151,-0.9546
82701,0.1613,-0.1152,-0.9546
82709,0.1613,-0.1155,-0.9546
82717,0.1613,-0.1156,-0.9546
82725,0.1613,-0.1157,-0.9545
82733,0.1613,-0.1157,-0.9545
82743,0.1613,-0.1158,-0.9545
82751,0.1613,-0.1158,-0.9545
82759,0.1613,-0.1158,-0.9545
82767,0.1613,-0.1157,-0.9545
82775,0.1613,-0.1157,-0.9545
82783,0.1613,-0.1156,-0.9545
82791,0.1611,-0.1156,-0.9545
82801,0.1611,-0.1156,-0.9545
82835,0.1611,-0.1157,-0.9543
82843,0.1611,-0.1157,-0.9543
82858,0.1611,-0.1158,-0.9543
82874,0.1611,-0.1161,-0.9543
82882,0.1611,-0.1161,-0.9542
82890,0.1611,-0.1161,-0.9542
82898,0.1611,-0.1161,-0.9542
82906,0.1611,-0.1161,-0.9542
82914,0.1611,-0.1160,-0.9542
82922,0.1611,-0.1158,-0.9542
82930,0.1610,-0.1157,-0.9542
82940,0.1610,-0.1156,-0.9543
82948,0.1610,-0.1155,-0.9543
82956,0.1610,-0.1154,-0.9543
82964,0.1610,-0.1152,-0.9543
82973,0.1610,-0.1151,-0.9543
82981,0.1609,-0.1150,-0.9545
82989,0.1609,-0.1149,-0.9545
82997,0.1609,-0.1147,-0.9545
83035,0.1608,-0.1141,-0.9546
83043,0.1608,-0.1140,-0.9545
83051,0.1609,-0.1139,-0.9545
83059,0.1609,-0.1139,-0.9545
83069,0.1609,-0.1138,-0.9545
83084,0.1610,-0.1135,-0.9543
83097,0.1610,-0.1135,-0.9543
83104,0.1610,-0.1135,-0.9543
83112,0.1611,-0.1135,-0.9542
83127,0.1611,-0.1138,-0.9542
83136,0.1613,-0.1139,-0.9542
83143,0.1613,-0.1141,-0.9541
83151,0.1613,-0.1144,-0.9541
83159,0.1613,-0.1146,-0.9541
83167,0.1613,-0.1149,-0.9541
83175,0.1614,-0.1150,-0.9541
83183,0.1614,-0.1152,-0.9541
83191,0.1614,-0.1152,-0.9541
83201,0.1614,-0.1154,-0.9541
83211,0.1614,-0.1155,-0.9541
83219,0.1614,-0.1155,-0.9542
83227,0.1614,-0.1155,-0.9542
83235,0.1614,-0.1155,-0.9542
83243,0.1613,-0.1155,-0.9543
83251,0.1613,-0.1155,-0.9543
83259,0.1613,-0.1155,-0.9545
83292,0.1611,-0.1150,-0.9547
83302,0.1611,-0.1149,-0.9547
83310,0.1611,-0.1146,-0.9548
83318,0.1611,-0.1145,-0.9548
83326,0.1611,-0.1143,-0.9550
83336,0.1611,-0.1140,-0.9550
83344,0.1611,-0.1138,-0.9551
83352,0.1611,-0.1135,-0.9551
83360,0.1611,-0.1132,-0.9552
83368,0.1611,-0.1129,-0.9552
83390,0.1611,-0.1119,-0.9554
83399,0.1611,-0.1117,-0.9554
83407,0.1611,-0.1115,-0.9554
83418,0.1611,-0.1113,-0.9554
83426,0.1611,-0.1112,-0.9554
83434,0.1611,-0.1112,-0.9554
83442,0.1611,-0.1111,-0.9554
83450,0.1611,-0.1111,-0.9554
83512,0.1611,-0.1106,-0.9553
83522,0.1611,-0.1107,-0.9552
83530,0.1611,-0.1108,-0.9552
83538,0.1611,-0.1111,-0.9551
83546,0.1610,-0.1112,-0.9551
83553,0.1610,-0.1112,-0.9551
83569,0.1609,-0.1116,-0.9550
83577,0.1609,-0.1118,-0.9550
83587,0.1608,-0.1123,-0.9548
83595,0.1608,-0.1125,-0.9548
83604,0.1608,-0.1128,-0.9548
83612,0.1606,-0.1130,-0.9547
83622,0.1606,-0.1132,-0.9547
83630,0.1606,-0.1133,-0.9547
83638,0.1606,-0.1133,-0.9547
83671,0.1606,-0.1127,-0.9550
83679,0.1606,-0.1124,-0.9551
83687,0.1608,-0.1121,-0.9551
83695,0.1608,-0.1118,-0.9552
83703,0.1608,-0.1116,-0.9552
83713,0.1609,-0.1112,-0.9553
83721,0.1609,-0.1110,-0.9553
83729,0.1609,-0.1107,-0.9554
83737,0.1609,-0.1106,-0.9554
83745,0.1610,-0.1104,-0.9554
83753,0.1610,-0.1102,-0.9556
83761,0.1610,-0.1100,-0.9556
83769,0.1610,-0.1099,-0.9556
83779,0.1610,-0.1097,-0.9557
83787,0.1609,-0.1097,-0.9557
83806,0.1609,-0.1096,-0.9557
83814,0.1609,-0.1096,-0.9557
83824,0.1609,-0.1096,-0.9558
83832,0.1609,-0.1096,-0.9558
83867,0.1606,-0.1095,-0.9558
83875,0.1606,-0.1095,-0.9559
83883,0.1606,-0.1095,-0.9559
83898,0.1605,-0.1096,-0.9559
83909,0.1605,-0.1097,-0.9558
83917,0.1605,-0.1099,-0.9558
83925,0.1605,-0.1099,-0.9558
83933,0.1604,-0.1100,-0.9558
83941,0.1604,-0.1101,-0.9558
83949,0.1604,-0.1102,-0.9558
83957,0.1604,-0.1102,-0.9558
83965,0.1604,-0.1104,-0.9558
83975,0.1604,-0.1105,-0.9557
83983,0.1604,-0.1105,-0.9557
83991,0.1604,-0.1105,-0.9557
83999,0.1604,-0.1105,-0.9557
84007,0.1604,-0.1105,-0.9557
84015,0.1604,-0.1106,-0.9557
84025,0.1605,-0.1107,-0.9557
84032,0.1605,-0.1107,-0.9557
84065,0.1606,-0.1110,-0.9557
84075,0.1606,-0.1111,-0.9558
84086,0.1608,-0.1112,-0.9558
84094,0.1608,-0.1112,-0.9558
84110,0.1608,-0.1115,-0.9558
84117,0.1608,-0.1115,-0.9558
84125,0.1608,-0.1115,-0.9558
84139,0.1606,-0.1115,-0.9558
84153,0.1606,-0.1115,-0.9558
84161,0.1606,-0.1113,-0.9558
84171,0.1605,-0.1112,-0.9558
84179,0.1605,-0.1112,-0.9558
84187,0.1605,-0.1112,-0.9558
84211,0.1605,-0.1113,-0.9557
84220,0.1605,-0.1115,-0.9556
84230,0.1605,-0.1115,-0.9556
84262,0.1605,-0.1118,-0.9556
84270,0.1605,-0.1118,-0.9556
84278,0.1605,-0.1119,-0.9556
84288,0.1605,-0.1118,-0.9556
84296,0.1605,-0.1118,-0.9556
84304,0.1605,-0.1118,-0.9556
84312,0.1605,-0.1118,-0.9556
84320,0.1605,-0.1118,-0.9556
84328,0.1605,-0.1118,-0.9556
84336,0.1605,-0.1118,-0.9556
84344,0.1605,-0.1118,-0.9556
84352,0.1605,-0.1118,-0.9556
84360,0.1605,-0.1118,-0.9556
84370,0.1605,-0.1118,-0.9556
84378,0.1605,-0.1118,-0.9557
84386,0.1605,-0.1117,-0.9557
84394,0.1605,-0.1117,-0.9557
84409,0.1605,-0.1116,-0.9558
84416,0.1605,-0.1115,-0.9558
84426,0.1605,-0.1113,-0.9558
84489,0.1605,-0.1107,-0.9561
84499,0.1605,-0.1106,-0.9559
84507,0.1605,-0.1106,-0.9559
84515,0.1605,-0.1106,-0.9559
84524,0.1605,-0.1106,-0.9558
84532,0.1604,-0.1106,-0.9558
84540,0.1604,-0.1107,-0.9557
84548,0.1604,-0.1107,-0.9556
84556,0.1604,-0.1108,-0.9556
84566,0.1604,-0.1110,-0.9554
84574,0.1604,-0.1110,-0.9553
84582,0.1603,-0.1111,-0.9553
84590,0.1603,-0.1111,-0.9552
84598,0.1603,-0.1112,-0.9552
84606,0.1603,-0.1112,-0.9552
84614,0.1603,-0.1112,-0.9551
84622,0.1603,-0.1112,-0.9551
84632,0.1603,-0.1112,-0.9551
84642,0.1604,-0.1112,-0.9551
84650,0.1604,-0.1112,-0.9550
84658,0.1605,-0.1112,-0.9550
84666,0.1606,-0.1112,-0.9550
84674,0.1606,-0.1112,-0.9550
84682,0.1608,-0.1111,-0.9550
84690,0.1608,-0.1110,-0.9550
84723,0.1608,-0.1106,-0.9552
84731,0.1608,-0.1105,-0.9552
84739,0.1608,-0.1104,-0.9553
84747,0.1608,-0.1104,-0.9554
84755,0.1608,-0.1102,-0.9554
84765,0.1608,-0.1101,-0.9556
84773,0.1606,-0.1101,-0.9556
84781,0.1606,-0.1100,-0.9557
84789,0.1606,-0.1100,-0.9557
84797,0.1606,-0.1099,-0.9558
84805,0.1605,-0.1099,-0.9558
84813,0.1605,-0.1099,-0.9559
84821,0.1605,-0.1099,-0.9559
84832,0.1605,-0.1100,-0.9559
84840,0.1605,-0.1100,-0.9559
84850,0.1605,-0.1101,-0.9561
84858,0.1605,-0.1102,-0.9561
84866,0.1605,-0.1102,-0.9561
84874,0.1605,-0.1104,-0.9561
84882,0.1605,-0.1104,-0.9561
84915,0.1605,-0.1102,-0.9559
84923,0.1605,-0.1102,-0.9559
84930,0.1605,-0.1101,-0.9559
84938,0.1605,-0.1100,-0.9559
84946,0.1605,-0.1099,-0.9559
84956,0.1605,-0.1099,-0.9559
84964,0.1605,-0.1097,-0.9559
84972,0.1605,-0.1097,-0.9559
84980,0.1605,-0.1097,-0.9559
84988,0.1605,-0.1096,-0.9559
84996,0.1605,-0.1096,-0.9558
85004,0.1605,-0.1096,-0.9558
85027,0.1605,-0.1096,-0.9558
85037,0.1606,-0.1095,-0.9558
85045,0.1606,-0.1095,-0.9558
85055,0.1606,-0.1095,-0.9558
85063,0.1606,-0.1094,-0.9557
85071,0.1606,-0.1094,-0.9557
85087,0.1606,-0.1094,-0.9557
85127,0.1608,-0.1097,-0.9554
85136,0.1608,-0.1099,-0.9554
85151,0.1608,-0.1101,-0.9553
85159,0.1608,-0.1102,-0.9553
85171,0.1608,-0.1104,-0.9553
85179,0.1608,-0.1104,-0.9553
85187,0.1608,-0.1105,-0.9553
85195,0.1608,-0.1105,-0.9553
85203,0.1608,-0.1105,-0.9553
85211,0.1606,-0.1104,-0.9553
85219,0.1606,-0.1104,-0.9554
85229,0.1606,-0.1104,-0.9554
85237,0.1605,-0.1104,-0.9554
85245,0.1605,-0.1104,-0.9556
85253,0.1604,-0.1104,-0.9556
85263,0.1604,-0.1104,-0.9556
85271,0.1603,-0.1104,-0.9556
85279,0.1603,-0.1104,-0.9557
85287,0.1603,-0.1104,-0.9557
85320,0.1602,-0.1101,-0.9557
85328,0.1602,-0.1101,-0.9558
85336,0.1602,-0.1100,-0.9558
85344,0.1602,-0.1099,-0.9558
85352,0.1602,-0.1099,-0.9558
85362,0.1602,-0.1097,-0.9559
85370,0.1602,-0.1096,-0.9559
85378,0.1602,-0.1096,-0.9559
85386,0.1602,-0.1095,-0.9561
85394,0.1602,-0.1095,-0.9561
85402,0.1602,-0.1095,-0.9561
85410,0.1603,-0.1095,-0.9561
85427,0.1603,-0.1095,-0.9561
85434,0.1604,-0.1095,-0.9559
85443,0.1604,-0.1095,-0.9559
85451,0.1605,-0.1095,-0.9559
85459,0.1605,-0.1095,-0.9558
85470,0.1606,-0.1095,-0.9557
85478,0.1608,-0.1095,-0.9557
85540,0.1610,-0.1099,-0.9554
85550,0.1610,-0.1099,-0.9554
85558,0.1610,-0.1100,-0.9554
85566,0.1610,-0.1100,-0.9554
85574,0.1611,-0.1100,-0.9554
85582,0.1610,-0.1100,-0.9554
85590,0.1610,-0.1100,-0.9553
85598,0.1610,-0.1100,-0.9553
85606,0.1610,-0.1100,-0.9553
85616,0.1610,-0.1099,-0.9553
85624,0.1610,-0.1099,-0.9554
85632,0.1610,-0.1099,-0.9554
85640,0.1609,-0.1097,-0.9554
85648,0.1609,-0.1097,-0.9554
85656,0.1609,-0.1097,-0.9554
85664,0.1609,-0.1096,-0.9554
85674,0.1608,-0.1096,-0.9556
85708,0.1606,-0.1093,-0.9557
85716,0.1606,-0.1093,-0.9557
85724,0.1606,-0.1091,-0.9557
85732,0.1605,-0.1091,-0.9557
85740,0.1605,-0.1090,-0.9558
85751,0.1605,-0.1090,-0.9558
85759,0.1605,-0.1089,-0.9558
85767,0.1605,-0.1088,-0.9559
85775,0.1604,-0.1088,-0.9559
85783,0.1604,-0.1086,-0.9561
85791,0.1604,-0.1086,-0.9561
85799,0.1604,-0.1085,-0.9561
85818,0.1603,-0.1085,-0.9562
85832,0.1603,-0.1086,-0.9563
85854,0.1603,-0.1088,-0.9563
85862,0.1602,-0.1089,-0.9564
85870,0.1602,-0.1089,-0.9564
85880,0.1602,-0.1090,-0.9564
85913,0.1603,-0.1094,-0.9564
85921,0.1603,-0.1095,-0.9564
85931,0.1603,-0.1097,-0.9564
85945,0.1604,-0.1099,-0.9563
85952,0.1604,-0.1099,-0.9562
85960,0.1604,-0.1099,-0.9562
85968,0.1604,-0.1097,-0.9562
85976,0.1604,-0.1096,-0.9561
85984,0.1604,-0.1095,-0.9561
85992,0.1604,-0.1094,-0.9559
86000,0.1604,-0.1094,-0.9558
86008,0.1605,-0.1095,-0.9557
86018,0.1606,-0.1096,-0.9554
86026,0.1608,-0.1099,-0.9551
86034,0.1610,-0.1102,-0.9548
86042,0.1611,-0.1105,-0.9546
86051,0.1613,-0.1107,-0.9543
86059,0.1613,-0.1110,-0.9542
86076,0.1614,-0.1111,-0.9539
86111,0.1613,-0.1110,-0.9535
86118,0.1613,-0.1108,-0.9535
86126,0.1613,-0.1107,-0.9535
86141,0.1611,-0.1105,-0.9536
86150,0.1610,-0.1104,-0.9536
86158,0.1609,-0.1102,-0.9537
86166,0.1608,-0.1101,-0.9539
86174,0.1608,-0.1100,-0.9539
86182,0.1606,-0.1099,-0.9540
86190,0.1605,-0.1099,-0.9541
86198,0.1605,-0.1099,-0.9542
86205,0.1605,-0.1099,-0.9542
86215,0.1604,-0.1097,-0.9545
86223,0.1604,-0.1097,-0.9546
86231,0.1604,-0.1097,-0.9547
86238,0.1604,-0.1097,-0.9547
86254,0.1604,-0.1097,-0.9550
86262,0.1604,-0.1097,-0.9551
86270,0.1604,-0.1097,-0.9553
86282,0.1604,-0.1096,-0.9556
86292,0.1604,-0.1095,-0.9557
86300,0.1605,-0.1095,-0.9557
86308,0.1605,-0.1095,-0.9558
86316,0.1605,-0.1096,-0.9559
86349,0.1606,-0.1097,-0.9562
86360,0.1606,-0.1097,-0.9562
86368,0.1606,-0.1096,-0.9562
86376,0.1606,-0.1096,-0.9562
86384,0.1606,-0.1097,-0.9562
86392,0.1606,-0.1097,-0.9562
86400,0.1608,-0.1099,-0.9562
86408,0.1608,-0.1100,-0.9561
86416,0.1608,-0.1101,-0.9561
86426,0.1608,-0.1101,-0.9559
86434,0.1608,-0.1102,-0.9559
86442,0.1608,-0.1102,-0.9559
86457,0.1608,-0.1104,-0.9558
86464,0.1608,-0.1104,-0.9557
86472,0.1608,-0.1104,-0.9557
86480,0.1608,-0.1104,-0.9557
86490,0.1608,-0.1102,-0.9557
86501,0.1606,-0.1102,-0.9556
86509,0.1606,-0.1101,-0.9556
86517,0.1606,-0.1101,-0.9557
86525,0.1605,-0.1100,-0.9557
86533,0.1605,-0.1100,-0.9557
86541,0.1605,-0.1099,-0.9557
86603,0.1603,-0.1096,-0.9558
86613,0.1603,-0.1095,-0.9558
86621,0.1603,-0.1095,-0.9558
86629,0.1603,-0.1095,-0.9558
86637,0.1603,-0.1095,-0.9558
86645,0.1603,-0.1096,-0.9558
86653,0.1603,-0.1096,-0.9558
86677,0.1604,-0.1096,-0.9559
86687,0.1604,-0.1096,-0.9559
86695,0.1604,-0.1096,-0.9559
86705,0.1605,-0.1095,-0.9561
86713,0.1605,-0.1095,-0.9561
86721,0.1605,-0.1095,-0.9561
86729,0.1606,-0.1095,-0.9561
86737,0.1606,-0.1095,-0.9561
86745,0.1606,-0.1095,-0.9561
86779,0.1608,-0.1093,-0.9562
86787,0.1608,-0.1093,-0.9562
86795,0.1608,-0.1091,-0.9562
86803,0.1608,-0.1091,-0.9562
86811,0.1608,-0.1093,-0.9562
86821,0.1608,-0.1093,-0.9561
86829,0.1608,-0.1093,-0.9561
86837,0.1606,-0.1094,-0.9561
86845,0.1606,-0.1094,-0.9561
86853,0.1606,-0.1094,-0.9559
86861,0.1606,-0.1094,-0.9559
86869,0.1606,-0.1094,-0.9559
86877,0.1606,-0.1094,-0.9559
86887,0.1606,-0.1094,-0.9558
86895,0.1606,-0.1093,-0.9558
86903,0.1606,-0.1093,-0.9558
86913,0.1606,-0.1093,-0.9558
86921,0.1606,-0.1093,-0.9558
86929,0.1606,-0.1093,-0.9558
86937,0.1606,-0.1093,-0.9558
86945,0.1606,-0.1093,-0.9558
86978,0.1608,-0.1091,-0.9558
86987,0.1608,-0.1091,-0.9558
86994,0.1608,-0.1090,-0.9559
87002,0.1608,-0.1090,-0.9559
87010,0.1608,-0.1089,-0.9561
87020,0.1608,-0.1089,-0.9561
87028,0.1609,-0.1089,-0.9561
87036,0.1609,-0.1089,-0.9561
87044,0.1609,-0.1090,-0.9561
87052,0.1609,-0.1090,-0.9561
87060,0.1609,-0.1091,-0.9561
87068,0.1609,-0.1091,-0.9561
87085,0.1609,-0.1093,-0.9561
87099,0.1608,-0.1093,-0.9561
87105,0.1608,-0.1093,-0.9561
87115,0.1606,-0.1093,-0.9561
87129,0.1605,-0.1093,-0.9561
87143,0.1604,-0.1094,-0.9562
87176,0.1603,-0.1094,-0.9562
87184,0.1602,-0.1094,-0.9562
87192,0.1602,-0.1093,-0.9562
87200,0.1602,-0.1093,-0.9563
87210,0.1600,-0.1093,-0.9563
87218,0.1600,-0.1093,-0.9563
87226,0.1600,-0.1093,-0.9563
87234,0.1600,-0.1093,-0.9564
87242,0.1600,-0.1093,-0.9564
87250,0.1600,-0.1093,-0.9564
87260,0.1600,-0.1093,-0.9564
87268,0.1602,-0.1091,-0.9564
87276,0.1602,-0.1091,-0.9564
87284,0.1602,-0.1091,-0.9564
87293,0.1603,-0.1091,-0.9563
87301,0.1604,-0.1091,-0.9563
87311,0.1604,-0.1093,-0.9562
87321,0.1605,-0.1093,-0.9561
87328,0.1605,-0.1093,-0.9561
87344,0.1606,-0.1094,-0.9559
87380,0.1606,-0.1099,-0.9556
87388,0.1606,-0.1100,-0.9556
87396,0.1606,-0.1101,-0.9554
87404,0.1606,-0.1101,-0.9554
87411,0.1606,-0.1101,-0.9554
87421,0.1606,-0.1102,-0.9553
87429,0.1606,-0.1102,-0.9553
87437,0.1606,-0.1102,-0.9553
87444,0.1606,-0.1102,-0.9553
87460,0.1605,-0.1102,-0.9553
87468,0.1605,-0.1101,-0.9553
87476,0.1604,-0.1101,-0.9553
87500,0.1604,-0.1102,-0.9554
87507,0.1604,-0.1104,-0.9554
87515,0.1604,-0.1104,-0.9556
87526,0.1604,-0.1104,-0.9556
87534,0.1604,-0.1104,-0.9557
87542,0.1604,-0.1102,-0.9557
87611,0.1606,-0.1101,-0.9559
87622,0.1606,-0.1100,-0.9559
87630,0.1606,-0.1100,-0.9559
87638,0.1606,-0.1100,-0.9559
87646,0.1606,-0.1100,-0.9558
87654,0.1608,-0.1102,-0.9556
87662,0.1609,-0.1105,-0.9554
87670,0.1610,-0.1108,-0.9552
87678,0.1611,-0.1112,-0.9550
87688,0.1613,-0.1116,-0.9547
87696,0.1614,-0.1121,-0.9546
87704,0.1615,-0.1123,-0.9543
87712,0.1615,-0.1127,-0.9542
87720,0.1616,-0.1129,-0.9541
87730,0.1616,-0.1132,-0.9540
87738,0.1617,-0.1134,-0.9540
87746,0.1617,-0.1135,-0.9539
87780,0.1620,-0.1138,-0.9539
87788,0.1621,-0.1136,-0.9539
87796,0.1621,-0.1135,-0.9539
87804,0.1622,-0.1134,-0.9540
87812,0.1622,-0.1132,-0.9540
87833,0.1621,-0.1123,-0.9543
87841,0.1621,-0.1122,-0.9543
87849,0.1621,-0.1122,-0.9545
87857,0.1621,-0.1121,-0.9545
87865,0.1620,-0.1121,-0.9545
87873,0.1620,-0.1123,-0.9545
87887,0.1619,-0.1129,-0.9545
87895,0.1619,-0.1133,-0.9545
87903,0.1619,-0.1135,-0.9545
87911,0.1619,-0.1138,-0.9545
87919,0.1619,-0.1140,-0.9545
87928,0.1617,-0.1140,-0.9545
87938,0.1617,-0.1140,-0.9545
87971,0.1615,-0.1133,-0.9547
87979,0.1614,-0.1130,-0.9548
87987,0.1614,-0.1128,-0.9550
88002,0.1613,-0.1123,-0.9551
88011,0.1613,-0.1121,-0.9551
88019,0.1613,-0.1117,-0.9552
88027,0.1613,-0.1115,-0.9552
88035,0.1613,-0.1111,-0.9552
88043,0.1611,-0.1107,-0.9553
88051,0.1613,-0.1104,-0.9553
88059,0.1613,-0.1100,-0.9553
88078,0.1613,-0.1093,-0.9554
88092,0.1613,-0.1088,-0.9556
88099,0.1614,-0.1085,-0.9556
88107,0.1614,-0.1084,-0.9556
88121,0.1614,-0.1082,-0.9556
88137,0.1615,-0.1080,-0.9557
88147,0.1615,-0.1078,-0.9557
88155,0.1614,-0.1077,-0.9557
88163,0.1614,-0.1077,-0.9558
88171,0.1614,-0.1075,-0.9558
88179,0.1613,-0.1074,-0.9558
88187,0.1611,-0.1072,-0.9558
88195,0.1610,-0.1071,-0.9558
88228,0.1604,-0.1062,-0.9561
88237,0.1603,-0.1060,-0.9561
88245,0.1600,-0.1057,-0.9562
88253,0.1599,-0.1055,-0.9562
88261,0.1598,-0.1052,-0.9562
88271,0.1595,-0.1047,-0.9563
88279,0.1595,-0.1046,-0.9563
88287,0.1595,-0.1044,-0.9564
88295,0.1594,-0.1044,-0.9564
88316,0.1593,-0.1039,-0.9564
88324,0.1592,-0.1038,-0.9564
88334,0.1592,-0.1038,-0.9565
88342,0.1592,-0.1038,-0.9565
88352,0.1592,-0.1036,-0.9565
88360,0.1592,-0.1036,-0.9565
88368,0.1592,-0.1035,-0.9565
88376,0.1592,-0.1033,-0.9567
88384,0.1592,-0.1030,-0.9567
88392,0.1591,-0.1028,-0.9568
88428,0.1583,-0.1006,-0.9572
88438,0.1581,-0.1001,-0.9573
88446,0.1580,-0.0996,-0.9574
88454,0.1577,-0.0991,-0.9574
88462,0.1575,-0.0988,-0.9575
88470,0.1573,-0.0984,-0.9575
88478,0.1572,-0.0981,-0.9576
88486,0.1571,-0.0980,-0.9576
88493,0.1571,-0.0980,-0.9576
88509,0.1571,-0.0979,-0.9576
88526,0.1573,-0.0979,-0.9576
88534,0.1575,-0.0979,-0.9576
88543,0.1576,-0.0977,-0.9575
88554,0.1580,-0.0970,-0.9575
88562,0.1582,-0.0967,-0.9574
88570,0.1584,-0.0963,-0.9574
88578,0.1588,-0.0959,-0.9573
88640,0.1603,-0.0924,-0.9572
88650,0.1604,-0.0918,-0.9572
88658,0.1604,-0.0911,-0.9572
88666,0.1604,-0.0905,-0.9572
88674,0.1604,-0.0898,-0.9573
88682,0.1603,-0.0892,-0.9573
88690,0.1603,-0.0887,-0.9573
88698,0.1602,-0.0883,-0.9574
88706,0.1602,-0.0878,-0.9574
88716,0.1600,-0.0874,-0.9575
88724,0.1599,-0.0872,-0.9575
88732,0.1598,-0.0868,-0.9576
88740,0.1597,-0.0865,-0.9576
88748,0.1595,-0.0863,-0.9578
88758,0.1593,-0.0859,-0.9579
88766,0.1593,-0.0859,-0.9580
88774,0.1593,-0.0858,-0.9580
88807,0.1591,-0.0858,-0.9581
88815,0.1591,-0.0858,-0.9583
88823,0.1591,-0.0859,-0.9583
88831,0.1592,-0.0861,-0.9583
88839,0.1593,-0.0862,-0.9581
88850,0.1594,-0.0864,-0.9580
88858,0.1595,-0.0867,-0.9580
88866,0.1597,-0.0870,-0.9580
88873,0.1597,-0.0870,-0.9580
88889,0.1598,-0.0880,-0.9579
88897,0.1599,-0.0885,-0.9579
88905,0.1599,-0.0892,-0.9580
88915,0.1599,-0.0907,-0.9580
88923,0.1599,-0.0907,-0.9581
88931,0.1599,-0.0914,-0.9581
88939,0.1599,-0.0922,-0.9581
88947,0.1598,-0.0929,-0.9583
88955,0.1598,-0.0936,-0.9583
88965,0.1597,-0.0948,-0.9584
88972,0.1597,-0.0948,-0.9584
89005,0.1595,-0.0968,-0.9584
89013,0.1595,-0.0972,-0.9584
89028,0.1594,-0.0974,-0.9584
89044,0.1594,-0.0974,-0.9583
89052,0.1593,-0.0973,-0.9583
89060,0.1593,-0.0970,-0.9583
89068,0.1593,-0.0969,-0.9581
89076,0.1593,-0.0967,-0.9581
89091,0.1593,-0.0962,-0.9580
89107,0.1593,-0.0956,-0.9579
89114,0.1593,-0.0953,-0.9579
89136,0.1594,-0.0950,-0.9578
89151,0.1595,-0.0946,-0.9576
89159,0.1595,-0.0945,-0.9576
89195,0.1598,-0.0945,-0.9575
89203,0.1598,-0.0946,-0.9575
89211,0.1598,-0.0947,-0.9575
89219,0.1598,-0.0950,-0.9575
89227,0.1599,-0.0952,-0.9575
89237,0.1599,-0.0957,-0.9575
89245,0.1599,-0.0957,-0.9575
89253,0.1598,-0.0959,-0.9574
89261,0.1598,-0.0962,-0.9574
89269,0.1598,-0.0963,-0.9574
89277,0.1597,-0.0966,-0.9574
89285,0.1597,-0.0967,-0.9573
89293,0.1597,-0.0968,-0.9573
89303,0.1595,-0.0969,-0.9572
89311,0.1595,-0.0969,-0.9572
89319,0.1594,-0.0969,-0.9572
89327,0.1594,-0.0969,-0.9572
89335,0.1593,-0.0969,-0.9572
89343,0.1593,-0.0969,-0.9572
89351,0.1592,-0.0968,-0.9572
89359,0.1592,-0.0968,-0.9572
89369,0.1592,-0.0967,-0.9572
89379,0.1592,-0.0967,-0.9572
89387,0.1593,-0.0967,-0.9572
89395,0.1593,-0.0966,-0.9572
89403,0.1593,-0.0966,-0.9572
89410,0.1593,-0.0966,-0.9572
89426,0.1594,-0.0964,-0.9572
89462,0.1597,-0.0966,-0.9573
89471,0.1597,-0.0966,-0.9573
89479,0.1598,-0.0966,-0.9573
89487,0.1598,-0.0967,-0.9573
89497,0.1598,-0.0967,-0.9573
89505,0.1598,-0.0967,-0.9573
89513,0.1599,-0.0968,-0.9573
89521,0.1599,-0.0968,-0.9572
89529,0.1599,-0.0969,-0.9572
89537,0.1600,-0.0969,-0.9572
89552,0.1600,-0.0970,-0.9570
89561,0.1600,-0.0970,-0.9569
89569,0.1602,-0.0972,-0.9569
89577,0.1602,-0.0972,-0.9569
89588,0.1602,-0.0972,-0.9568
89596,0.1602,-0.0972,-0.9568
89604,0.1602,-0.0973,-0.9568
89612,0.1602,-0.0973,-0.9568
89673,0.1603,-0.0978,-0.9567
89683,0.1603,-0.0978,-0.9567
89691,0.1603,-0.0978,-0.9567
89699,0.1603,-0.0979,-0.9567
89707,0.1603,-0.0979,-0.9567
89715,0.1603,-0.0979,-0.9567
89723,0.1603,-0.0980,-0.9567
89731,0.1603,-0.0980,-0.9568
89739,0.1602,-0.0980,-0.9568
89749,0.1602,-0.0981,-0.9568
89757,0.1602,-0.0981,-0.9568
89765,0.1603,-0.0983,-0.9568
89774,0.1603,-0.0983,-0.9569
89782,0.1603,-0.0983,-0.9569
89792,0.1603,-0.0983,-0.9569
89800,0.1603,-0.0983,-0.9569
89833,0.1603,-0.0983,-0.9570
89852,0.1603,-0.0983,-0.9570
89860,0.1603,-0.0983,-0.9570
89868,0.1603,-0.0981,-0.9570
89882,0.1603,-0.0981,-0.9570
89889,0.1603,-0.0981,-0.9570
89905,0.1603,-0.0980,-0.9570
89913,0.1603,-0.0980,-0.9570
89921,0.1603,-0.0980,-0.9570
89929,0.1604,-0.0980,-0.9570
89939,0.1604,-0.0980,-0.9569
89961,0.1604,-0.0979,-0.9568
89969,0.1604,-0.0979,-0.9568
89977,0.1604,-0.0979,-0.9567
89985,0.1604,-0.0979,-0.9567
89995,0.1604,-0.0979,-0.9567
90029,0.1603,-0.0979,-0.9564
90037,0.1603,-0.0979,-0.9564
90052,0.1603,-0.0979,-0.9563
90059,0.1603,-0.0979,-0.9563
90069,0.1603,-0.0979,-0.9563
90078,0.1603,-0.0979,-0.9563
90094,0.1603,-0.0980,-0.9563
90108,0.1603,-0.0981,-0.9563
90115,0.1603,-0.0983,-0.9563
90123,0.1603,-0.0983,-0.9564
90133,0.1603,-0.0984,-0.9564
90147,0.1603,-0.0985,-0.9564
90153,0.1603,-0.0985,-0.9564
90169,0.1602,-0.0986,-0.9565
90177,0.1600,-0.0986,-0.9567
90185,0.1600,-0.0988,-0.9567
90195,0.1600,-0.0989,-0.9567
90205,0.1599,-0.0990,-0.9567
90213,0.1599,-0.0990,-0.9568
90221,0.1599,-0.0991,-0.9568
90229,0.1599,-0.0991,-0.9568
90236,0.1599,-0.0991,-0.9568
90252,0.1599,-0.0992,-0.9568
90285,0.1599,-0.0994,-0.9568
90293,0.1599,-0.0994,-0.9567
90301,0.1598,-0.0994,-0.9567
90309,0.1599,-0.0994,-0.9567
90317,0.1599,-0.0994,-0.9567
90327,0.1599,-0.0994,-0.9567
90335,0.1599,-0.0995,-0.9567
90343,0.1599,-0.0995,-0.9567
90351,0.1600,-0.0995,-0.9567
90359,0.1600,-0.0995,-0.9567
90367,0.1600,-0.0996,-0.9567
90375,0.1602,-0.0996,-0.9567
90384,0.1602,-0.0996,-0.9567
90394,0.1602,-0.0997,-0.9567
90401,0.1602,-0.0997,-0.9567
90411,0.1602,-0.0999,-0.9567
90419,0.1602,-0.0999,-0.9567
90426,0.1602,-0.0999,-0.9567
90442,0.1602,-0.0999,-0.9567
90450,0.1602,-0.0999,-0.9567
90483,0.1603,-0.0999,-0.9567
90491,0.1603,-0.0999,-0.9567
90499,0.1603,-0.0999,-0.9567
90507,0.1603,-0.0999,-0.9567
90515,0.1603,-0.0999,-0.9567
90527,0.1603,-0.1000,-0.9567
90535,0.1603,-0.1000,-0.9567
90543,0.1603,-0.1001,-0.9567
90551,0.1603,-0.1001,-0.9567
90558,0.1603,-0.1001,-0.9567
90573,0.1603,-0.1001,-0.9567
90580,0.1603,-0.1001,-0.9567
90590,0.1603,-0.1001,-0.9565
90598,0.1603,-0.1001,-0.9565
90606,0.1603,-0.1001,-0.9565
90617,0.1603,-0.1001,-0.9565
90624,0.1603,-0.1001,-0.9565
90640,0.1603,-0.1001,-0.9565
90648,0.1603,-0.1001,-0.9565
90709,0.1603,-0.1000,-0.9564
90720,0.1603,-0.1000,-0.9564
90728,0.1603,-0.1000,-0.9564
90736,0.1603,-0.1000,-0.9564
90744,0.1603,-0.1000,-0.9563
90752,0.1603,-0.1000,-0.9563
90760,0.1603,-0.1000,-0.9563
90781,0.1602,-0.1000,-0.9563
90791,0.1602,-0.1000,-0.9562
90799,0.1600,-0.1000,-0.9563
90807,0.1600,-0.1000,-0.9563
90817,0.1600,-0.1000,-0.9563
90825,0.1600,-0.1000,-0.9563
90833,0.1600,-0.1000,-0.9563
90841,0.1602,-0.1000,-0.9563
90849,0.1602,-0.1000,-0.9563
90882,0.1604,-0.1001,-0.9564
90890,0.1605,-0.1001,-0.9564
90898,0.1605,-0.1001,-0.9565
90906,0.1606,-0.1001,-0.9565
90913,0.1606,-0.1001,-0.9565
90923,0.1606,-0.1002,-0.9565
90931,0.1606,-0.1002,-0.9567
90939,0.1608,-0.1002,-0.9567
90946,0.1608,-0.1002,-0.9567
90962,0.1608,-0.1002,-0.9567
90970,0.1606,-0.1002,-0.9567
90978,0.1606,-0.1002,-0.9567
90988,0.1606,-0.1002,-0.9568
90996,0.1606,-0.1002,-0.9568
91004,0.1605,-0.1002,-0.9568
91012,0.1604,-0.1003,-0.9568
91023,0.1603,-0.1003,-0.9568
91031,0.1602,-0.1003,-0.9568
91039,0.1602,-0.1003,-0.9568
91072,0.1599,-0.1003,-0.9568
91080,0.1599,-0.1002,-0.9568
91086,0.1599,-0.1002,-0.9568
91101,0.1599,-0.1002,-0.9567
91110,0.1600,-0.1002,-0.9567
91117,0.1600,-0.1002,-0.9565
91125,0.1600,-0.1002,-0.9565
91140,0.1602,-0.1002,-0.9564
91154,0.1603,-0.1002,-0.9563
91162,0.1604,-0.1002,-0.9562
91172,0.1605,-0.1003,-0.9562
91180,0.1605,-0.1003,-0.9561
91188,0.1606,-0.1003,-0.9561
91196,0.1606,-0.1003,-0.9561
91204,0.1606,-0.1005,-0.9559
91212,0.1608,-0.1005,-0.9559
91220,0.1608,-0.1005,-0.9559
91230,0.1608,-0.1005,-0.9558
91264,0.1606,-0.1005,-0.9558
91272,0.1606,-0.1005,-0.9558
91280,0.1605,-0.1005,-0.9558
91288,0.1605,-0.1005,-0.9558
91296,0.1604,-0.1003,-0.9558
91306,0.1604,-0.1003,-0.9559
91314,0.1603,-0.1002,-0.9559
91323,0.1603,-0.1002,-0.9559
91331,0.1603,-0.1002,-0.9559
91339,0.1603,-0.1002,-0.9561
91347,0.1602,-0.1002,-0.9561
91355,0.1603,-0.1002,-0.9561
91363,0.1603,-0.1003,-0.9562
91373,0.1603,-0.1003,-0.9562
91381,0.1603,-0.1003,-0.9562
91389,0.1603,-0.1003,-0.9563
91397,0.1604,-0.1003,-0.9563
91405,0.1604,-0.1003,-0.9563
91413,0.1604,-0.1003,-0.9564
91421,0.1604,-0.1003,-0.9564
91431,0.1605,-0.1003,-0.9565
