sys_ms,acc_x,acc_y,acc_z
97531,-0.3665,-0.4717,0.8025
97710,-0.2832,-0.4985,0.7858
97727,-0.2725,-0.4994,0.7875
97749,-0.2615,-0.4999,0.7899
97769,-0.2505,-0.5001,0.7930
97808,-0.2177,-0.4990,0.8047
97831,-0.2069,-0.4979,0.8090
97860,-0.1859,-0.4944,0.8170
97883,-0.1758,-0.4921,0.8207
97905,-0.1562,-0.4866,0.8267
97922,-0.1471,-0.4835,0.8291
97947,-0.1382,-0.4803,0.8313
97969,-0.1218,-0.4740,0.8354
98002,-0.1071,-0.4684,0.8402
98025,-0.1003,-0.4662,0.8429
98047,-0.0939,-0.4645,0.8461
98069,-0.0822,-0.4630,0.8535
98092,-0.0768,-0.4635,0.8578
98109,-0.0718,-0.4648,0.8623
98131,-0.0671,-0.4670,0.8671
98148,-0.0629,-0.4700,0.8718
98175,-0.0554,-0.4775,0.8810
98208,-0.0491,-0.4863,0.8884
98231,-0.0461,-0.4908,0.8911
98248,-0.0402,-0.4995,0.8939
98270,-0.0371,-0.5035,0.8940
98293,-0.0337,-0.5074,0.8931
98310,-0.0302,-0.5110,0.8912
98332,-0.0221,-0.5176,0.8850
98349,-0.0176,-0.5204,0.8810
98397,-0.0026,-0.5266,0.8674
98419,0.0031,-0.5275,0.8632
98436,0.0089,-0.5276,0.8594
98474,0.0217,-0.5253,0.8529
98499,0.0360,-0.5198,0.8481
98522,0.0436,-0.5161,0.8463
98543,0.0514,-0.5121,0.8448
98601,0.0835,-0.4969,0.8430
98626,0.0917,-0.4945,0.8436
98648,0.1082,-0.4917,0.8458
98670,0.1166,-0.4915,0.8474
98694,0.1337,-0.4932,0.8507
98716,0.1423,-0.4949,0.8524
98737,0.1512,-0.4968,0.8540
98791,0.1781,-0.5035,0.8593
98823,0.1957,-0.5066,0.8647
98841,0.2039,-0.5071,0.8684
98863,0.2180,-0.5054,0.8788
98886,0.2234,-0.5028,0.8855
98903,0.2273,-0.4990,0.8933
98925,0.2292,-0.4939,0.9023
98947,0.2272,-0.4802,0.9232
98982,0.2159,-0.4620,0.9470
99005,0.2069,-0.4514,0.9592
99022,0.1959,-0.4399,0.9713
99044,0.1687,-0.4152,0.9937
99065,0.1531,-0.4023,1.0033
99089,0.1367,-0.3895,1.0112
99120,0.1025,-0.3652,1.0216
99143,0.0688,-0.3448,1.0231
99162,0.0531,-0.3365,1.0200
99185,0.0383,-0.3300,1.0145
99207,0.0132,-0.3219,0.9962
99240,-0.0045,-0.3210,0.9694
99262,-0.0100,-0.3234,0.9536
99279,-0.0132,-0.3275,0.9368
99302,-0.0139,-0.3333,0.9194
99324,-0.0081,-0.3494,0.8850
99341,-0.0013,-0.3593,0.8691
99366,0.0077,-0.3700,0.8547
99388,0.0323,-0.3936,0.8330
99428,0.0647,-0.4180,0.8230
99456,0.1023,-0.4414,0.8256
99473,0.1223,-0.4521,0.8314
99496,0.1428,-0.4622,0.8398
99518,0.1635,-0.4713,0.8507
99545,0.2040,-0.4863,0.8777
99569,0.2423,-0.4965,0.9086
99591,0.2603,-0.4996,0.9243
99642,0.3082,-0.5010,0.9667
99669,0.3344,-0.4949,0.9874
99689,0.3455,-0.4897,0.9948
99711,0.3553,-0.4832,1.0004
99735,0.3715,-0.4662,1.0062
99759,0.3778,-0.4561,1.0072
99776,0.3829,-0.4449,1.0070
99829,0.3909,-0.4077,1.0026
99854,0.3889,-0.3820,0.9983
99877,0.3854,-0.3695,0.9958
99899,0.3800,-0.3577,0.9933
99916,0.3630,-0.3362,0.9879
99938,0.3513,-0.3267,0.9854
99961,0.3373,-0.3184,0.9833
100003,0.2808,-0.3007,0.9825
100026,0.2567,-0.2975,0.9851
100043,0.2299,-0.2958,0.9894
100070,0.1681,-0.2960,1.0032
100092,0.1332,-0.2980,1.0123
100109,0.0957,-0.3008,1.0227
100131,0.0145,-0.3091,1.0459
100153,-0.0282,-0.3143,1.0582
100170,-0.0713,-0.3202,1.0709
100188,-0.1141,-0.3267,1.0837
100210,-0.1556,-0.3337,1.0967
100257,-0.2642,-0.3557,1.1373
100280,-0.3153,-0.3694,1.1663
100297,-0.3328,-0.3751,1.1809
100319,-0.3444,-0.3800,1.1954
100342,-0.3499,-0.3835,1.2095
100375,-0.3420,-0.3859,1.2352
100393,-0.3290,-0.3840,1.2467
100415,-0.2852,-0.3733,1.2675
100448,-0.2194,-0.3525,1.2853
100471,-0.1793,-0.3387,1.2931
100488,-0.1350,-0.3232,1.3002
100510,-0.0872,-0.3062,1.3064
100532,0.0170,-0.2699,1.3152
100549,0.0715,-0.2515,1.3175
100571,0.1268,-0.2334,1.3180
100594,0.2360,-0.2002,1.3135
100650,0.3843,-0.1641,1.2906
100678,0.4647,-0.1531,1.2646
100697,0.4978,-0.1522,1.2485
100719,0.5256,-0.1545,1.2306
100739,0.5479,-0.1600,1.2109
100756,0.5645,-0.1688,1.1898
100778,0.5807,-0.1951,1.1438
100795,0.5804,-0.2123,1.1193
100847,0.5493,-0.2748,1.0425
100870,0.5299,-0.2981,1.0166
100887,0.5067,-0.3219,0.9910
100909,0.4508,-0.3702,0.9414
100932,0.4189,-0.3942,0.9180
100949,0.3854,-0.4174,0.8959
100980,0.3143,-0.4607,0.8558
100998,0.2780,-0.4803,0.8384
101030,0.2063,-0.5146,0.8090
101053,0.1719,-0.5289,0.7972
101070,0.1390,-0.5415,0.7875
101090,0.0787,-0.5608,0.7737
101113,0.0518,-0.5676,0.7693
101137,0.0270,-0.5726,0.7662
101159,-0.0161,-0.5774,0.7634
101182,-0.0345,-0.5774,0.7629
101224,-0.0791,-0.5691,0.7628
101247,-0.0909,-0.5641,0.7626
101264,-0.1016,-0.5582,0.7618
101295,-0.1202,-0.5442,0.7594
101318,-0.1289,-0.5363,0.7577
101335,-0.1376,-0.5277,0.7557
101357,-0.1553,-0.5088,0.7518
101380,-0.1648,-0.4985,0.7504
101399,-0.1750,-0.4880,0.7495
101421,-0.1973,-0.4663,0.7515
101444,-0.2092,-0.4552,0.7548
101476,-0.2345,-0.4327,0.7673
101499,-0.2474,-0.4215,0.7769
101516,-0.2604,-0.4104,0.7886
101538,-0.2853,-0.3879,0.8185
101556,-0.2968,-0.3767,0.8363
101600,-0.3252,-0.3433,0.8964
101618,-0.3324,-0.3324,0.9172
101681,-0.3464,-0.3020,0.9753
101703,-0.3501,-0.2844,1.0072
101725,-0.3502,-0.2767,1.0205
101745,-0.3494,-0.2698,1.0321
101771,-0.3445,-0.2587,1.0498
101794,-0.3405,-0.2546,1.0560
101811,-0.3353,-0.2515,1.0604
101870,-0.3051,-0.2494,1.0579
101905,-0.2850,-0.2543,1.0435
101948,-0.2502,-0.2688,1.0052
101970,-0.2377,-0.2756,0.9886
101993,-0.2249,-0.2836,0.9702
102018,-0.1990,-0.3027,0.9301
102066,-0.1617,-0.3397,0.8683
102089,-0.1501,-0.3540,0.8497
102112,-0.1287,-0.3839,0.8195
102134,-0.1188,-0.3990,0.8082
102157,-0.1095,-0.4141,0.8002
102174,-0.1006,-0.4285,0.7952
102205,-0.0839,-0.4553,0.7944
102223,-0.0756,-0.4673,0.7986
102255,-0.0586,-0.4880,0.8141
102278,-0.0403,-0.5042,0.8362
102295,-0.0304,-0.5105,0.8484
102317,-0.0203,-0.5157,0.8604
102340,-0.0096,-0.5199,0.8715
102357,0.0010,-0.5231,0.8812
102379,0.0222,-0.5271,0.8948
102402,0.0322,-0.5281,0.8977
102428,0.0499,-0.5288,0.8949
102451,0.0573,-0.5288,0.8892
102473,0.0631,-0.5287,0.8807
102505,0.0706,-0.5288,0.8577
102533,0.0715,-0.5303,0.8293
102550,0.0697,-0.5319,0.8145
102573,0.0663,-0.5339,0.7997
102594,0.0547,-0.5402,0.7719
102618,0.0468,-0.5444,0.7593
102636,0.0375,-0.5492,0.7478
102657,0.0269,-0.5547,0.7375
102720,-0.0259,-0.5802,0.7102
102741,-0.0577,-0.5941,0.7080
102761,-0.0745,-0.6010,0.7113
102781,-0.0917,-0.6074,0.7179
102804,-0.1089,-0.6132,0.7281
102834,-0.1427,-0.6223,0.7594
102852,-0.1589,-0.6254,0.7798
102904,-0.2135,-0.6261,0.8788
102929,-0.2238,-0.6230,0.9036
102952,-0.2327,-0.6187,0.9263
102974,-0.2461,-0.6057,0.9629
102991,-0.2507,-0.5970,0.9758
103014,-0.2540,-0.5868,0.9847
103036,-0.2559,-0.5748,0.9899
103078,-0.2516,-0.5294,0.9854
103098,-0.2466,-0.5111,0.9789
103119,-0.2396,-0.4916,0.9711
103145,-0.2191,-0.4493,0.9543
103168,-0.2053,-0.4275,0.9464
103185,-0.1893,-0.4056,0.9396
103207,-0.1511,-0.3646,0.9294
103230,-0.1294,-0.3466,0.9265
103272,-0.0598,-0.3087,0.9274
103295,-0.0366,-0.3030,0.9308
103312,-0.0140,-0.3010,0.9355
103334,0.0076,-0.3029,0.9413
103356,0.0471,-0.3176,0.9546
103373,0.0648,-0.3298,0.9611
103396,0.0807,-0.3446,0.9666
103418,0.1072,-0.3795,0.9716
103480,0.1305,-0.4359,0.9546
103521,0.1313,-0.4833,0.9012
103544,0.1261,-0.4951,0.8762
103571,0.1066,-0.5122,0.8192
103594,0.0922,-0.5176,0.7893
103615,0.0536,-0.5231,0.7323
103635,0.0294,-0.5238,0.7079
103658,0.0023,-0.5237,0.6875
103678,-0.0275,-0.5232,0.6724
103696,-0.0597,-0.5227,0.6631
103715,-0.1288,-0.5226,0.6644
104385,0.0541,-0.4504,0.7578
104452,0.0560,-0.5396,0.7997
104474,0.0498,-0.5803,0.8156
104495,0.0447,-0.5977,0.8193
104516,0.0380,-0.6125,0.8198
104533,0.0294,-0.6244,0.8168
104555,0.0189,-0.6331,0.8101
104577,-0.0085,-0.6404,0.7872
104596,-0.0255,-0.6393,0.7722
104619,-0.0447,-0.6354,0.7556
104641,-0.0889,-0.6208,0.7211
104674,-0.1394,-0.6013,0.6896
104710,-0.1946,-0.5812,0.6667
104727,-0.2234,-0.5723,0.6598
104747,-0.2527,-0.5645,0.6564
104769,-0.2825,-0.5581,0.6567
104786,-0.3127,-0.5535,0.6613
104804,-0.3734,-0.5486,0.6827
104826,-0.4034,-0.5481,0.6998
104888,-0.5125,-0.5535,0.8036
104913,-0.5341,-0.5547,0.8354
104935,-0.5522,-0.5552,0.8680
104957,-0.5758,-0.5522,0.9310
104974,-0.5803,-0.5483,0.9591
105015,-0.5736,-0.5347,1.0034
105033,-0.5624,-0.5250,1.0181
105065,-0.5251,-0.5011,1.0303
105088,-0.4712,-0.4733,1.0195
105105,-0.4395,-0.4587,1.0061
105128,-0.4056,-0.4445,0.9880
105150,-0.3704,-0.4307,0.9658
105208,-0.2297,-0.3895,0.8510
105225,-0.1980,-0.3849,0.8195
105261,-0.1425,-0.3848,0.7589
105284,-0.0988,-0.3987,0.7070
105317,-0.0671,-0.4270,0.6698
105338,-0.0553,-0.4460,0.6577
105359,-0.0457,-0.4678,0.6504
105376,-0.0378,-0.4916,0.6478
105398,-0.0315,-0.5168,0.6498
105420,-0.0215,-0.5692,0.6656
105470,-0.0084,-0.6418,0.7094
105497,-0.0040,-0.6619,0.7257
105519,0.0050,-0.6924,0.7551
105542,0.0094,-0.7019,0.7665
105559,0.0133,-0.7072,0.7745
105584,0.0188,-0.7051,0.7788
105623,0.0188,-0.6868,0.7668
105663,0.0010,-0.6360,0.7267
105682,-0.0112,-0.6152,0.7111
105705,-0.0271,-0.5935,0.6962
105725,-0.0466,-0.5719,0.6831
105744,-0.0699,-0.5510,0.6731
105766,-0.1271,-0.5137,0.6653
105788,-0.1603,-0.4983,0.6688
105808,-0.1959,-0.4855,0.6779
105825,-0.2335,-0.4752,0.6925
105843,-0.2723,-0.4675,0.7125
105865,-0.3506,-0.4583,0.7675
105932,-0.4889,-0.4563,0.9182
105956,-0.5161,-0.4572,0.9596
105974,-0.5393,-0.4576,1.0006
105996,-0.5717,-0.4553,1.0773
106019,-0.5803,-0.4517,1.1107
106038,-0.5835,-0.4459,1.1398
106060,-0.5740,-0.4277,1.1805
106082,-0.5615,-0.4154,1.1910
106118,-0.5231,-0.3848,1.1902
106155,-0.4703,-0.3491,1.1602
106178,-0.4086,-0.3127,1.1046
106201,-0.3760,-0.2959,1.0691
106225,-0.3097,-0.2679,0.9885
106260,-0.2448,-0.2513,0.9032
106283,-0.2137,-0.2484,0.8619
106318,-0.1560,-0.2540,0.7882
106340,-0.1300,-0.2625,0.7579
106363,-0.0851,-0.2893,0.7151
106386,-0.0664,-0.3065,0.7042
106408,-0.0363,-0.3453,0.7052
106425,-0.0243,-0.3656,0.7170
106450,-0.0143,-0.3853,0.7357
106472,0.0012,-0.4210,0.7898
106520,0.0115,-0.4480,0.8582
106560,0.0178,-0.4644,0.9634
106583,0.0171,-0.4623,0.9938
106609,0.0104,-0.4469,1.0411
106632,0.0040,-0.4340,1.0566
106656,-0.0160,-0.4001,1.0696
106699,-0.0479,-0.3595,1.0592
106722,-0.0940,-0.3177,1.0295
106739,-0.1229,-0.2983,1.0096
106762,-0.1560,-0.2806,0.9875
106784,-0.1932,-0.2651,0.9646
106801,-0.2344,-0.2524,0.9415
106823,-0.3270,-0.2356,0.8997
106866,-0.4293,-0.2306,0.8688
106922,-0.6343,-0.2487,0.8569
106939,-0.6792,-0.2562,0.8657
106962,-0.7192,-0.2637,0.8792
106984,-0.7814,-0.2760,0.9183
107001,-0.8020,-0.2795,0.9432
107023,-0.8147,-0.2809,0.9706
107046,-0.8191,-0.2795,1.0000
107063,-0.8151,-0.2753,1.0304
107080,-0.8025,-0.2682,1.0609
107102,-0.7517,-0.2462,1.1183
107153,-0.6171,-0.2019,1.1815
107177,-0.5591,-0.1871,1.1932
107195,-0.4958,-0.1738,1.1996
107217,-0.3579,-0.1549,1.1947
107240,-0.2852,-0.1506,1.1837
107264,-0.2113,-0.1505,1.1672
107281,-0.0641,-0.1636,1.1200
107303,0.0074,-0.1769,1.0905
107346,0.1427,-0.2158,1.0236
107367,0.2634,-0.2677,0.9525
107384,0.3174,-0.2970,0.9178
107407,0.3666,-0.3278,0.8851
107429,0.4110,-0.3591,0.8556
107446,0.4507,-0.3905,0.8300
107491,0.5405,-0.4772,0.7854
107549,0.5912,-0.5492,0.8094
107574,0.5909,-0.5560,0.8284
107599,0.5746,-0.5543,0.8762
107622,0.5583,-0.5460,0.9031
107642,0.5371,-0.5331,0.9305
107664,0.4797,-0.4950,0.9834
107687,0.4442,-0.4712,1.0071
107743,0.2612,-0.3611,1.0714
107768,0.2061,-0.3341,1.0784
107788,0.1475,-0.3090,1.0818
107811,0.0209,-0.2668,1.0787
107836,-0.0465,-0.2510,1.0734
107856,-0.1158,-0.2388,1.0664
107877,-0.2582,-0.2251,1.0508
107902,-0.3292,-0.2233,1.0435
107920,-0.3990,-0.2242,1.0375
107942,-0.5304,-0.2328,1.0310
108009,-0.7300,-0.2622,1.0487
108033,-0.7611,-0.2689,1.0604
108056,-0.7833,-0.2744,1.0748
108101,-0.7909,-0.2804,1.1310
108121,-0.7732,-0.2786,1.1519
108143,-0.7081,-0.2701,1.1910
108166,-0.6617,-0.2643,1.2073
108201,-0.5458,-0.2520,1.2281
108224,-0.4065,-0.2424,1.2290
108241,-0.3315,-0.2400,1.2208
108264,-0.2551,-0.2394,1.2070
108286,-0.1787,-0.2407,1.1876
108303,-0.1036,-0.2444,1.1631
108327,0.0365,-0.2578,1.1011
108350,0.0992,-0.2677,1.0651
108392,0.2477,-0.3079,0.9489
108416,0.2820,-0.3245,0.9109
108434,0.3085,-0.3424,0.8752
108456,0.3389,-0.3826,0.8148
108479,0.3439,-0.4043,0.7920
108503,0.3374,-0.4497,0.7646
108525,0.3278,-0.4727,0.7604
108542,0.3151,-0.4951,0.7623
108597,0.2660,-0.5558,0.7975
108622,0.2300,-0.5861,0.8356
108645,0.2120,-0.5969,0.8556
108667,0.1942,-0.6045,0.8746
108684,0.1766,-0.6085,0.8917
108724,0.1239,-0.5989,0.9231
108741,0.1056,-0.5887,0.9250
108780,0.0669,-0.5596,0.9148
108803,0.0233,-0.5216,0.8875
108820,-0.0010,-0.5007,0.8688
108843,-0.0273,-0.4796,0.8480
108864,-0.0559,-0.4587,0.8262
108881,-0.0868,-0.4388,0.8043
108903,-0.1559,-0.4047,0.7649
108926,-0.1937,-0.3915,0.7496
108946,-0.2335,-0.3813,0.7386
108968,-0.3170,-0.3704,0.7329
108991,-0.3591,-0.3691,0.7394
109043,-0.4769,-0.3782,0.7959
109067,-0.5387,-0.3915,0.8577
109084,-0.5621,-0.3994,0.8925
109107,-0.5797,-0.4080,0.9281
109129,-0.5908,-0.4167,0.9634
109148,-0.5929,-0.4344,1.0276
109170,-0.5836,-0.4430,1.0543
109193,-0.5676,-0.4512,1.0760
109228,-0.5171,-0.4658,1.1014
109251,-0.4453,-0.4784,1.0999
109268,-0.4034,-0.4836,1.0889
109291,-0.3585,-0.4884,1.0712
109313,-0.2642,-0.4960,1.0188
109330,-0.2164,-0.4989,0.9858
109372,-0.1248,-0.5024,0.9127
109419,-0.0072,-0.5027,0.8059
109441,0.0245,-0.5015,0.7767
109464,0.0752,-0.4980,0.7351
109487,0.0936,-0.4963,0.7242
109504,0.1077,-0.4950,0.7205
109526,0.1174,-0.4943,0.7239
109548,0.1249,-0.4958,0.7501
109598,0.1133,-0.5082,0.8220
109616,0.1055,-0.5155,0.8486
109637,0.0966,-0.5248,0.8737
109674,0.0780,-0.5488,0.9126
109692,0.0618,-0.5792,0.9277
109714,0.0554,-0.5962,0.9242
109737,0.0507,-0.6139,0.9127
109754,0.0477,-0.6321,0.8933
109771,0.0465,-0.6504,0.8663
109793,0.0487,-0.6862,0.7924
109846,0.0587,-0.7335,0.6509
109867,0.0619,-0.7462,0.6024
109884,0.0642,-0.7568,0.5564
109906,0.0649,-0.7650,0.5148
109928,0.0602,-0.7743,0.4498
109945,0.0537,-0.7753,0.4287
109978,0.0317,-0.7706,0.4125
109996,0.0159,-0.7654,0.4178
110054,-0.0507,-0.7383,0.4841
110079,-0.1072,-0.7107,0.5618
110102,-0.1378,-0.6938,0.6071
110124,-0.2015,-0.6549,0.7034
110141,-0.2340,-0.6334,0.7515
110164,-0.2661,-0.6108,0.7979
110188,-0.3273,-0.5640,0.8815
110230,-0.3801,-0.5165,0.9476
110253,-0.4017,-0.4932,0.9728
110286,-0.4645,-0.4280,1.0137
110309,-0.4468,-0.4086,1.0160
110334,-0.4465,-0.3905,1.0133
110355,-0.4324,-0.3601,0.9943
110376,-0.4193,-0.3480,0.9792
110393,-0.4031,-0.3381,0.9613
110429,-0.3633,-0.3256,0.9192
110452,-0.3186,-0.3219,0.8733
110469,-0.2959,-0.3234,0.8505
110491,-0.2739,-0.3269,0.8286
110514,-0.2529,-0.3323,0.8081
110531,-0.2335,-0.3396,0.7897
110553,-0.2003,-0.3589,0.7606
110586,-0.1761,-0.3838,0.7444
110636,-0.1565,-0.4263,0.7483
110661,-0.1533,-0.4401,0.7568
110683,-0.1501,-0.4642,0.7827
110705,-0.1498,-0.4744,0.7987
110722,-0.1501,-0.4827,0.8160
110745,-0.1511,-0.4894,0.8337
110767,-0.1550,-0.4976,0.8679
110784,-0.1580,-0.4989,0.8832
110801,-0.1616,-0.4987,0.8962
110824,-0.1659,-0.4968,0.9069
110873,-0.1835,-0.4830,0.9215
110900,-0.1984,-0.4691,0.9163
110920,-0.2068,-0.4615,0.9097
110943,-0.2157,-0.4536,0.9008
110965,-0.2351,-0.4382,0.8777
110982,-0.2454,-0.4312,0.8643
111008,-0.2559,-0.4248,0.8502
111030,-0.2771,-0.4146,0.8220
111081,-0.3073,-0.4077,0.7860
111106,-0.3164,-0.4077,0.7771
111128,-0.3248,-0.4088,0.7701
111150,-0.3402,-0.4143,0.7621
111167,-0.3474,-0.4186,0.7610
111200,-0.3611,-0.4302,0.7646
111217,-0.3677,-0.4371,0.7692
111259,-0.3795,-0.4526,0.7826
111282,-0.3884,-0.4689,0.8010
111299,-0.3911,-0.4767,0.8115
111322,-0.3921,-0.4839,0.8224
111344,-0.3878,-0.4963,0.8445
111361,-0.3820,-0.5015,0.8547
111383,-0.3733,-0.5061,0.8638
111405,-0.3617,-0.5105,0.8711
111450,-0.3103,-0.5253,0.8766
111473,-0.2887,-0.5311,0.8717
111505,-0.2418,-0.5448,0.8517
111528,-0.1937,-0.5615,0.8188
111553,-0.1707,-0.5712,0.7985
111575,-0.1282,-0.5931,0.7516
111597,-0.1097,-0.6053,0.7262
111614,-0.0934,-0.6183,0.7001
111634,-0.0793,-0.6318,0.6738
111657,-0.0677,-0.6458,0.6481
111723,-0.0461,-0.7150,0.5417
111746,-0.0479,-0.7275,0.5277
111769,-0.0507,-0.7393,0.5166
111809,-0.0624,-0.7700,0.5017
111828,-0.0660,-0.7789,0.5028
111851,-0.0691,-0.7872,0.5070
111885,-0.0723,-0.8020,0.5239
111902,-0.0720,-0.8081,0.5365
111924,-0.0674,-0.8173,0.5686
111947,-0.0632,-0.8199,0.5874
111964,-0.0580,-0.8210,0.6072
111986,-0.0519,-0.8206,0.6277
112008,-0.0376,-0.8143,0.6685
112032,-0.0297,-0.8086,0.6881
112054,-0.0133,-0.7924,0.7240
112119,0.0179,-0.7458,0.7762
112143,0.0245,-0.7328,0.7842
112166,0.0306,-0.7198,0.7898
112185,0.0359,-0.7070,0.7931
112204,0.0442,-0.6829,0.7926
112228,0.0470,-0.6718,0.7891
112250,0.0488,-0.6615,0.7837
112271,0.0494,-0.6438,0.7682
112307,0.0463,-0.6304,0.7483
112330,0.0436,-0.6255,0.7374
112347,0.0402,-0.6218,0.7266
112369,0.0316,-0.6182,0.7056
112390,0.0267,-0.6183,0.6963
112413,0.0217,-0.6194,0.6882
112446,0.0114,-0.6248,0.6765
112483,-0.0045,-0.6401,0.6720
112512,-0.0101,-0.6471,0.6740
112535,-0.0229,-0.6627,0.6840
112560,-0.0300,-0.6707,0.6920
112581,-0.0377,-0.6782,0.7019
112601,-0.0544,-0.6907,0.7258
112622,-0.0635,-0.6951,0.7391
112642,-0.0730,-0.6981,0.7526
112665,-0.0935,-0.6995,0.7792
112717,-0.1284,-0.6887,0.8146
112748,-0.1534,-0.6736,0.8325
112765,-0.1658,-0.6643,0.8391
112788,-0.1777,-0.6542,0.8439
112810,-0.1891,-0.6437,0.8467
112827,-0.1997,-0.6329,0.8473
112849,-0.2181,-0.6122,0.8423
112866,-0.2257,-0.6024,0.8369
112909,-0.2374,-0.5850,0.8213
112929,-0.2444,-0.5710,0.8005
112952,-0.2460,-0.5656,0.7889
112974,-0.2465,-0.5613,0.7767
112993,-0.2456,-0.5583,0.7642
113016,-0.2406,-0.5570,0.7390
113053,-0.2307,-0.5620,0.7151
113109,-0.2069,-0.5818,0.6846
113136,-0.1852,-0.6014,0.6711
113159,-0.1727,-0.6124,0.6675
113181,-0.1454,-0.6350,0.6682
113198,-0.1309,-0.6459,0.6731
113221,-0.1160,-0.6559,0.6810
113243,-0.0864,-0.6720,0.7050
113260,-0.0723,-0.6774,0.7202
113277,-0.0587,-0.6807,0.7369
113300,-0.0460,-0.6816,0.7546
113423,0.0060,-0.6354,0.8652
113492,0.0165,-0.5862,0.9003
113511,0.0215,-0.5792,0.8988
113534,0.0284,-0.5741,0.8933
113556,0.0497,-0.5706,0.8691
113573,0.0641,-0.5725,0.8502
113595,0.0809,-0.5770,0.8268
113618,0.1000,-0.5842,0.7994
113676,0.1903,-0.6360,0.6595
113732,0.2572,-0.6909,0.5410
113760,0.2938,-0.7297,0.4667
113777,0.3086,-0.7489,0.4332
113800,0.3207,-0.7672,0.4032
113822,0.3364,-0.8008,0.3551
113839,0.3401,-0.8153,0.3374
113862,0.3412,-0.8284,0.3239
113884,0.3403,-0.8397,0.3143
113901,0.3379,-0.8496,0.3086
113923,0.3297,-0.8650,0.3062
113947,0.3250,-0.8708,0.3087
113970,0.3165,-0.8793,0.3195
113991,0.3137,-0.8822,0.3269
114011,0.3123,-0.8842,0.3351
114028,0.3125,-0.8855,0.3435
114056,0.3185,-0.8867,0.3599
114079,0.3243,-0.8868,0.3671
114096,0.3322,-0.8867,0.3732
114118,0.3524,-0.8857,0.3820
114140,0.3644,-0.8846,0.3846
114160,0.3770,-0.8829,0.3861
114182,0.3900,-0.8807,0.3862
114204,0.4163,-0.8741,0.3822
114221,0.4293,-0.8700,0.3776
114244,0.4424,-0.8652,0.3706
114266,0.4553,-0.8602,0.3615
114283,0.4806,-0.8496,0.3358
114305,0.4926,-0.8445,0.3199
114328,0.5037,-0.8396,0.3026
114364,0.5228,-0.8304,0.2655
114382,0.5366,-0.8217,0.2284
114399,0.5413,-0.8173,0.2109
114421,0.5444,-0.8127,0.1949
114444,0.5459,-0.8082,0.1807
114467,0.5443,-0.7993,0.1582
114490,0.5414,-0.7950,0.1501
114512,0.5372,-0.7913,0.1440
114529,0.5319,-0.7881,0.1399
114551,0.5192,-0.7844,0.1365
114576,0.5123,-0.7847,0.1367
114593,0.5055,-0.7866,0.1378
114615,0.4924,-0.7958,0.1410
114638,0.4862,-0.8032,0.1423
114661,0.4802,-0.8129,0.1427
114684,0.4683,-0.8390,0.1394
114709,0.4622,-0.8555,0.1349
114731,0.4490,-0.8950,0.1184
114754,0.4417,-0.9177,0.1061
114780,0.4253,-0.9664,0.0736
114803,0.4163,-0.9913,0.0541
114825,0.4067,-1.0156,0.0332
114842,0.3969,-1.0388,0.0114
114864,0.3768,-1.0787,-0.0332
114887,0.3668,-1.0942,-0.0548
114904,0.3571,-1.1060,-0.0752
114926,0.3475,-1.1136,-0.0938
114966,0.3217,-1.1086,-0.1337
114984,0.3141,-1.0975,-0.1405
115005,0.3073,-1.0820,-0.1438
115025,0.3011,-1.0625,-0.1433
115047,0.2913,-1.0137,-0.1322
115069,0.2877,-0.9858,-0.1221
115091,0.2853,-0.9568,-0.1095
115108,0.2841,-0.9275,-0.0950
115130,0.2856,-0.8718,-0.0625
115153,0.2888,-0.8472,-0.0455
115170,0.2937,-0.8257,-0.0289
115187,0.3004,-0.8080,-0.0131
115209,0.3198,-0.7858,0.0143
115234,0.3325,-0.7816,0.0250
115271,0.3634,-0.7878,0.0398
115296,0.3998,-0.8110,0.0439
115319,0.4193,-0.8276,0.0417
115341,0.4594,-0.8666,0.0295
115358,0.4789,-0.8873,0.0199
115381,0.4977,-0.9080,0.0085
115404,0.5153,-0.9277,-0.0046
115421,0.5312,-0.9460,-0.0190
115443,0.5571,-0.9757,-0.0507
115466,0.5665,-0.9863,-0.0673
115488,0.5774,-0.9969,-0.1003
115510,0.5787,-0.9966,-0.1160
115533,0.5773,-0.9924,-0.1304
115550,0.5734,-0.9846,-0.1433
115579,0.5586,-0.9587,-0.1627
115596,0.5483,-0.9414,-0.1687
115614,0.5365,-0.9219,-0.1720
115636,0.5234,-0.9006,-0.1724
115658,0.4949,-0.8555,-0.1652
115675,0.4800,-0.8329,-0.1577
115693,0.4653,-0.8113,-0.1481
115716,0.4510,-0.7913,-0.1366
115740,0.4249,-0.7588,-0.1094
115763,0.4136,-0.7476,-0.0946
115785,0.4036,-0.7402,-0.0798
115804,0.3877,-0.7389,-0.0520
115827,0.3818,-0.7451,-0.0398
115849,0.3772,-0.7560,-0.0294
115881,0.3702,-0.7906,-0.0156
115904,0.3651,-0.8385,-0.0127
115929,0.3627,-0.8654,-0.0151
115951,0.3573,-0.9205,-0.0262
115973,0.3542,-0.9469,-0.0339
115997,0.3508,-0.9714,-0.0425
116019,0.3433,-1.0127,-0.0602
116040,0.3390,-1.0284,-0.0686
116063,0.3346,-1.0405,-0.0765
116085,0.3251,-1.0532,-0.0898
116108,0.3202,-1.0538,-0.0947
116132,0.3152,-1.0508,-0.0984
116154,0.3048,-1.0344,-0.1008
116194,0.2947,-1.0072,-0.0966
116215,0.2848,-0.9729,-0.0858
116237,0.2802,-0.9543,-0.0782
116260,0.2756,-0.9357,-0.0696
116277,0.2716,-0.9174,-0.0598
116299,0.2648,-0.8835,-0.0380
116322,0.2626,-0.8691,-0.0262
116339,0.2612,-0.8569,-0.0142
116361,0.2610,-0.8473,-0.0018
116383,0.2645,-0.8374,0.0223
116400,0.2686,-0.8376,0.0336
116417,0.2743,-0.8418,0.0438
116440,0.2817,-0.8499,0.0527
116457,0.2908,-0.8619,0.0598
116481,0.3138,-0.8969,0.0675
116502,0.3275,-0.9188,0.0675
116519,0.3423,-0.9429,0.0647
116542,0.3580,-0.9680,0.0591
116564,0.3914,-1.0179,0.0396
116581,0.4083,-1.0410,0.0259
116604,0.4250,-1.0616,0.0100
116628,0.4562,-1.0931,-0.0277
116645,0.4697,-1.1030,-0.0486
116667,0.4817,-1.1086,-0.0703
116690,0.4915,-1.1096,-0.0923
116707,0.4989,-1.1058,-0.1139
116729,0.5063,-1.0842,-0.1537
116752,0.5061,-1.0665,-0.1707
116798,0.4913,-0.9906,-0.2051
116823,0.4824,-0.9597,-0.2100
116840,0.4719,-0.9270,-0.2115
116862,0.4480,-0.8605,-0.2050
116885,0.4351,-0.8282,-0.1973
116902,0.4220,-0.7980,-0.1873
116924,0.4089,-0.7706,-0.1752
116946,0.3844,-0.7275,-0.1473
116963,0.3733,-0.7131,-0.1328
116984,0.3632,-0.7042,-0.1184
117003,0.3540,-0.7010,-0.1049
117020,0.3459,-0.7039,-0.0928
117041,0.3328,-0.7271,-0.0742
117063,0.3274,-0.7473,-0.0687
117096,0.3179,-0.8033,-0.0668
117119,0.3134,-0.8375,-0.0707
117143,0.3040,-0.9127,-0.0879
117166,0.2986,-0.9514,-0.1003
117188,0.2926,-0.9894,-0.1144
117205,0.2860,-1.0253,-0.1293
117227,0.2708,-1.0868,-0.1593
117244,0.2621,-1.1104,-0.1730
117269,0.2529,-1.1283,-0.1849
117291,0.2335,-1.1449,-0.2014
117314,0.2238,-1.1433,-0.2053
117338,0.2053,-1.1208,-0.2035
117360,0.1973,-1.1011,-0.1980
117402,0.1851,-1.0486,-0.1788
117420,0.1813,-1.0179,-0.1660
117444,0.1792,-0.9535,-0.1357
117467,0.1810,-0.9221,-0.1193
117484,0.1847,-0.8926,-0.1023
117506,0.1974,-0.8434,-0.0681
117529,0.2062,-0.8251,-0.0516
117551,0.2164,-0.8114,-0.0359
117572,0.2406,-0.7993,-0.0076
117595,0.2542,-0.8008,0.0046
117612,0.2684,-0.8074,0.0153
117634,0.2831,-0.8187,0.0240
117651,0.2980,-0.8346,0.0308
117668,0.3127,-0.8542,0.0353
117715,0.3531,-0.9280,0.0339
117733,0.3644,-0.9542,0.0292
117755,0.3823,-1.0028,0.0157
117778,0.3888,-1.0236,0.0078
117795,0.3934,-1.0411,-0.0005
117817,0.3971,-1.0648,-0.0168
117839,0.3961,-1.0708,-0.0248
117858,0.3933,-1.0728,-0.0323
117881,0.3890,-1.0710,-0.0397
117903,0.3763,-1.0569,-0.0532
117920,0.3684,-1.0450,-0.0591
117943,0.3600,-1.0304,-0.0643
117965,0.3512,-1.0134,-0.0685
117987,0.3339,-0.9742,-0.0730
118007,0.3258,-0.9530,-0.0731
118029,0.3184,-0.9316,-0.0719
118050,0.3064,-0.8904,-0.0654
118067,0.3021,-0.8718,-0.0608
118090,0.2992,-0.8553,-0.0554
118114,0.2977,-0.8418,-0.0498
118136,0.2993,-0.8248,-0.0392
118159,0.3022,-0.8224,-0.0348
118176,0.3065,-0.8243,-0.0315
118198,0.3176,-0.8418,-0.0300
118220,0.3235,-0.8568,-0.0328
118238,0.3290,-0.8754,-0.0383
118262,0.3335,-0.8965,-0.0466
118284,0.3381,-0.9432,-0.0698
118317,0.3347,-0.9894,-0.0980
118340,0.3298,-1.0100,-0.1123
118357,0.3226,-1.0280,-0.1259
118379,0.3022,-1.0537,-0.1479
118401,0.2897,-1.0608,-0.1555
118418,0.2759,-1.0635,-0.1605
118441,0.2612,-1.0621,-0.1625
118465,0.2313,-1.0469,-0.1576
118482,0.2170,-1.0336,-0.1509
118505,0.2035,-1.0171,-0.1415
118527,0.1809,-0.9764,-0.1165
118544,0.1722,-0.9537,-0.1016
118564,0.1655,-0.9303,-0.0856
118586,0.1610,-0.9070,-0.0690
118628,0.1602,-0.8464,-0.0189
118651,0.1641,-0.8318,-0.0032
118677,0.1777,-0.8138,0.0253
118699,0.1873,-0.8112,0.0377
118721,0.1986,-0.8129,0.0486
118743,0.2264,-0.8289,0.0649
118765,0.2424,-0.8429,0.0701
118788,0.2596,-0.8606,0.0728
118805,0.2776,-0.8816,0.0729
118827,0.3149,-0.9309,0.0643
118850,0.3336,-0.9576,0.0553
118876,0.3696,-1.0116,0.0284
118899,0.3865,-1.0372,0.0111
118929,0.4164,-1.0820,-0.0292
118946,0.4290,-1.1002,-0.0513
118969,0.4396,-1.1149,-0.0740
118989,0.4481,-1.1257,-0.0967
119011,0.4585,-1.1350,-0.1406
119032,0.4600,-1.1332,-0.1609
119053,0.4591,-1.1267,-0.1792
119078,0.4501,-1.1007,-0.2087
119099,0.4424,-1.0815,-0.2195
119118,0.4327,-1.0585,-0.2274
119135,0.4215,-1.0323,-0.2325
119157,0.3954,-0.9727,-0.2351
119180,0.3812,-0.9409,-0.2330
119204,0.3667,-0.9091,-0.2292
119238,0.3254,-0.8225,-0.2098
119262,0.3135,-0.7997,-0.2015
119279,0.3030,-0.7810,-0.1926
119302,0.2943,-0.7672,-0.1830
119326,0.2823,-0.7555,-0.1631
119347,0.2794,-0.7577,-0.1533
119367,0.2783,-0.7651,-0.1443
119389,0.2811,-0.7942,-0.1290
119412,0.2847,-0.8146,-0.1230
119434,0.2891,-0.8380,-0.1179
119451,0.2942,-0.8635,-0.1138
119473,0.3051,-0.9170,-0.1078
119490,0.3102,-0.9427,-0.1055
119515,0.3148,-0.9666,-0.1034
119538,0.3217,-1.0051,-0.0990
119561,0.3235,-1.0186,-0.0962
119578,0.3245,-1.0277,-0.0929
119600,0.3242,-1.0321,-0.0891
119621,0.3203,-1.0280,-0.0803
119645,0.3168,-1.0199,-0.0752
119667,0.3064,-0.9946,-0.0637
119684,0.2997,-0.9789,-0.0574
119708,0.2921,-0.9618,-0.0504
119726,0.2837,-0.9442,-0.0430
119748,0.2743,-0.9268,-0.0348
119772,0.2535,-0.8942,-0.0164
119795,0.2421,-0.8799,-0.0062
119817,0.2173,-0.8572,0.0156
119843,0.2041,-0.8491,0.0271
119861,0.1904,-0.8434,0.0386
119885,0.1622,-0.8392,0.0612
119908,0.1481,-0.8407,0.0720
119925,0.1343,-0.8444,0.0822
119947,0.1211,-0.8499,0.0917
119969,0.0977,-0.8663,0.1079
119991,0.0883,-0.8768,0.1146
120012,0.0806,-0.8889,0.1205
120032,0.0718,-0.9177,0.1292
120055,0.0707,-0.9347,0.1320
120076,0.0715,-0.9537,0.1335
120098,0.0787,-0.9980,0.1326
120115,0.0846,-1.0234,0.1294
120144,0.0916,-1.0508,0.1243
120169,0.1084,-1.1093,0.1069
120192,0.1178,-1.1389,0.0944
120214,0.1383,-1.1942,0.0608
120231,0.1493,-1.2178,0.0403
120254,0.1609,-1.2373,0.0176
120276,0.1730,-1.2520,-0.0067
120293,0.1858,-1.2611,-0.0321
120310,0.1991,-1.2644,-0.0579
120332,0.2272,-1.2526,-0.1093
120357,0.2417,-1.2378,-0.1338
120376,0.2561,-1.2177,-0.1572
120395,0.2841,-1.1636,-0.1992
120420,0.2972,-1.1310,-0.2170
120453,0.3204,-1.0583,-0.2454
120476,0.3390,-0.9807,-0.2618
120493,0.3462,-0.9418,-0.2653
120510,0.3521,-0.9038,-0.2655
120532,0.3567,-0.8672,-0.2625
120549,0.3600,-0.8329,-0.2562
120572,0.3622,-0.8013,-0.2472
120594,0.3639,-0.7489,-0.2212
120611,0.3635,-0.7292,-0.2050
120634,0.3628,-0.7144,-0.1871
120655,0.3616,-0.7048,-0.1681
120679,0.3585,-0.7015,-0.1282
120702,0.3571,-0.7080,-0.1079
120725,0.3545,-0.7358,-0.0682
120757,0.3527,-0.7821,-0.0319
120779,0.3516,-0.8112,-0.0161
120804,0.3500,-0.8431,-0.0029
120826,0.3445,-0.9127,0.0142
120849,0.3400,-0.9481,0.0177
120866,0.3340,-0.9824,0.0183
120888,0.3267,-1.0145,0.0164
120912,0.3073,-1.0677,0.0067
120929,0.2954,-1.0873,-0.0000
120952,0.2826,-1.1013,-0.0071
120973,0.2544,-1.1117,-0.0212
120993,0.2399,-1.1083,-0.0275
121013,0.2253,-1.0994,-0.0328
121034,0.2111,-1.0857,-0.0372
121058,0.1848,-1.0466,-0.0422
121081,0.1732,-1.0232,-0.0427
121102,0.1628,-0.9980,-0.0420
121124,0.1464,-0.9468,-0.0365
121141,0.1404,-0.9220,-0.0319
121163,0.1360,-0.8987,-0.0262
121185,0.1329,-0.8774,-0.0195
121202,0.1311,-0.8586,-0.0117
121224,0.1305,-0.8296,0.0065
121247,0.1313,-0.8199,0.0166
121264,0.1326,-0.8137,0.0273
121286,0.1359,-0.8113,0.0499
121308,0.1377,-0.8148,0.0613
121329,0.1396,-0.8212,0.0726
121359,0.1442,-0.8411,0.0946
121382,0.1469,-0.8541,0.1050
121403,0.1539,-0.8853,0.1240
121426,0.1584,-0.9031,0.1323
121450,0.1641,-0.9224,0.1396
121472,0.1786,-0.9657,0.1505
121495,0.1877,-0.9900,0.1532
121512,0.1981,-1.0157,0.1533
121529,0.2097,-1.0427,0.1503
121551,0.2363,-1.0978,0.1332
121576,0.2511,-1.1244,0.1187
121598,0.2666,-1.1493,0.1002
121620,0.2987,-1.1899,0.0535
121637,0.3149,-1.2040,0.0262
121663,0.3308,-1.2130,-0.0027
121684,0.3604,-1.2137,-0.0627
121701,0.3735,-1.2051,-0.0925
121724,0.3854,-1.1903,-0.1213
121742,0.3958,-1.1698,-0.1487
121767,0.4115,-1.1133,-0.1974
121790,0.4170,-1.0787,-0.2179
121812,0.4209,-1.0409,-0.2355
121829,0.4232,-1.0010,-0.2500
121851,0.4243,-0.9187,-0.2692
121874,0.4233,-0.8785,-0.2737
121891,0.4215,-0.8402,-0.2750
121913,0.4167,-0.7731,-0.2683
121937,0.4139,-0.7456,-0.2604
121970,0.4088,-0.7050,-0.2366
121991,0.4067,-0.6923,-0.2211
122011,0.4049,-0.6847,-0.2035
122033,0.4021,-0.6849,-0.1647
122056,0.4011,-0.6925,-0.1444
122078,0.3992,-0.7218,-0.1056
122095,0.3981,-0.7429,-0.0880
122117,0.3965,-0.7682,-0.0725
122142,0.3942,-0.7968,-0.0596
122159,0.3911,-0.8282,-0.0496
122180,0.3816,-0.8960,-0.0391
122203,0.3749,-0.9302,-0.0386
122220,0.3667,-0.9630,-0.0406
122242,0.3571,-0.9937,-0.0450
122275,0.3334,-1.0638,-0.0654
122293,0.3051,-1.0780,-0.0729
122315,0.2894,-1.0872,-0.0798
122338,0.2734,-1.0912,-0.0859
122357,0.2571,-1.0903,-0.0908
122376,0.2246,-1.0746,-0.0964
122398,0.2091,-1.0607,-0.0969
122415,0.1943,-1.0436,-0.0957
122438,0.1804,-1.0239,-0.0927
122460,0.1561,-0.9797,-0.0813
122477,0.1459,-0.9567,-0.0730
122500,0.1371,-0.9337,-0.0629
122522,0.1295,-0.9114,-0.0508
122539,0.1234,-0.8903,-0.0367
122577,0.1122,-0.8383,0.0179
122602,0.1104,-0.8259,0.0404
122624,0.1089,-0.8098,0.0918
122647,0.1086,-0.8064,0.1206
122671,0.1085,-0.8063,0.1514
122691,0.1075,-0.8160,0.2170
122714,0.1064,-0.8262,0.2505
122738,0.1046,-0.8397,0.2831
122755,0.0988,-0.8763,0.3408
122777,0.0945,-0.8987,0.3640
122794,0.0896,-0.9232,0.3817
122817,0.0839,-0.9495,0.3932
122839,0.0704,-1.0054,0.3929
122856,0.0631,-1.0341,0.3794
122882,0.0552,-1.0624,0.3563
122905,0.0382,-1.1167,0.2808
122922,0.0294,-1.1418,0.2283
122945,0.0206,-1.1655,0.1666
122969,0.0121,-1.1874,0.0964
122990,-0.0035,-1.2239,-0.0638
123013,-0.0101,-1.2375,-0.1503
123033,-0.0154,-1.2473,-0.2382
123055,-0.0217,-1.2533,-0.4086
123077,-0.0225,-1.2488,-0.4866
123096,-0.0214,-1.2390,-0.5570
123113,-0.0184,-1.2242,-0.6180
123135,-0.0073,-1.1805,-0.7065
123157,0.0007,-1.1527,-0.7322
123182,0.0103,-1.1218,-0.7446
123205,0.0330,-1.0535,-0.7311
123228,0.0457,-1.0177,-0.7061
123252,0.0725,-0.9468,-0.6243
123275,0.0861,-0.9132,-0.5702
123297,0.0994,-0.8823,-0.5098
123314,0.1119,-0.8546,-0.4446
123336,0.1346,-0.8121,-0.3077
123357,0.1442,-0.7986,-0.2397
123381,0.1521,-0.7905,-0.1743
123402,0.1628,-0.7914,-0.0568
123425,0.1654,-0.7999,-0.0070
123449,0.1643,-0.8307,0.0715
123493,0.1549,-0.8756,0.1208
123511,0.1476,-0.9011,0.1353
123533,0.1282,-0.9540,0.1469
123556,0.1168,-0.9796,0.1460
123582,0.0918,-1.0256,0.1370
123605,0.0787,-1.0450,0.1311
123627,0.0658,-1.0615,0.1257
123647,0.0409,-1.0845,0.1200
123669,0.0294,-1.0907,0.1212
123692,0.0188,-1.0936,0.1259
123715,0.0010,-1.0892,0.1466
123738,-0.0062,-1.0822,0.1627
123755,-0.0123,-1.0721,0.1826
123789,-0.0220,-1.0444,0.2310
123807,-0.0259,-1.0277,0.2579
123831,-0.0337,-0.9911,0.3124
123854,-0.0382,-0.9729,0.3374
123876,-0.0435,-0.9558,0.3594
123893,-0.0497,-0.9408,0.3768
123915,-0.0659,-0.9197,0.3937
123938,-0.0762,-0.9144,0.3915
123955,-0.0878,-0.9131,0.3812
123976,-0.1006,-0.9155,0.3629
123998,-0.1287,-0.9308,0.3018
124022,-0.1436,-0.9425,0.2599
124041,-0.1584,-0.9563,0.2115
124061,-0.1868,-0.9868,0.0995
124087,-0.1995,-1.0023,0.0376
124105,-0.2109,-1.0170,-0.0269
124124,-0.2208,-1.0305,-0.0930
124146,-0.2346,-1.0519,-0.2269
124163,-0.2382,-1.0591,-0.2927
124186,-0.2391,-1.0636,-0.3567
124208,-0.2329,-1.0647,-0.4761
124225,-0.2257,-1.0616,-0.5298
124247,-0.2157,-1.0563,-0.5786
124270,-0.2032,-1.0490,-0.6216
124287,-0.1885,-1.0397,-0.6580
124309,-0.1532,-1.0165,-0.7085
124332,-0.1331,-1.0029,-0.7217
124356,-0.1118,-0.9883,-0.7263
124397,-0.0443,-0.9417,-0.6910
124416,-0.0217,-0.9261,-0.6639
124435,0.0005,-0.9113,-0.6302
124456,0.0426,-0.8848,-0.5459
124480,0.0621,-0.8737,-0.4969
124503,0.0803,-0.8644,-0.4447
124525,0.1128,-0.8517,-0.3347
124542,0.1268,-0.8484,-0.2789
124565,0.1394,-0.8472,-0.2239
124587,0.1506,-0.8478,-0.1704
124604,0.1688,-0.8547,-0.0723
124621,0.1759,-0.8610,-0.0292
124643,0.1818,-0.8690,0.0092
124668,0.1864,-0.8787,0.0422
124701,0.1914,-0.9023,0.0919
124722,0.1906,-0.9303,0.1193
124739,0.1880,-0.9454,0.1248
124762,0.1841,-0.9611,0.1250
124784,0.1790,-0.9769,0.1205
124801,0.1727,-0.9926,0.1113
124822,0.1575,-1.0219,0.0820
124845,0.1488,-1.0348,0.0632
124862,0.1396,-1.0464,0.0428
124884,0.1301,-1.0562,0.0215
124906,0.1107,-1.0701,-0.0210
124923,0.1011,-1.0742,-0.0406
124946,0.0919,-1.0762,-0.0585
124968,0.0754,-1.0743,-0.0859
124999,0.0684,-1.0703,-0.0946
125022,0.0573,-1.0571,-0.1002
125044,0.0533,-1.0481,-0.0966
125063,0.0504,-1.0380,-0.0886
125085,0.0479,-1.0157,-0.0594
125107,0.0480,-1.0043,-0.0383
125129,0.0487,-0.9929,-0.0129
125151,0.0511,-0.9722,0.0491
125168,0.0524,-0.9637,0.0846
125191,0.0533,-0.9572,0.1222
125212,0.0538,-0.9529,0.1606
125237,0.0521,-0.9526,0.2367
125260,0.0497,-0.9572,0.2722
125282,0.0419,-0.9761,0.3323
125308,0.0364,-0.9902,0.3542
125326,0.0298,-1.0072,0.3694
125348,0.0135,-1.0466,0.3750
125370,0.0043,-1.0677,0.3643
125388,-0.0056,-1.0885,0.3439
125410,-0.0157,-1.1083,0.3135
125434,-0.0356,-1.1409,0.2230
125451,-0.0447,-1.1522,0.1641
125474,-0.0529,-1.1595,0.0973
125496,-0.0648,-1.1604,-0.0530
125513,-0.0681,-1.1536,-0.1328
125535,-0.0695,-1.1422,-0.2128
125558,-0.0687,-1.1266,-0.2909
125575,-0.0658,-1.1073,-0.3650
125612,-0.0450,-1.0336,-0.5470
125629,-0.0347,-1.0063,-0.5898
125646,-0.0231,-0.9790,-0.6227
125669,-0.0106,-0.9521,-0.6449
125693,0.0027,-0.9263,-0.6567
125713,0.0298,-0.8798,-0.6505
125735,0.0433,-0.8599,-0.6338
125769,0.0692,-0.8278,-0.5779
125792,0.0814,-0.8159,-0.5411
125814,0.1035,-0.8008,-0.4567
125831,0.1133,-0.7975,-0.4114
125848,0.1222,-0.7969,-0.3658
125871,0.1299,-0.7988,-0.3210
125888,0.1365,-0.8032,-0.2781
125921,0.1454,-0.8179,-0.2013
125944,0.1482,-0.8387,-0.1406
125961,0.1475,-0.8510,-0.1173
125984,0.1455,-0.8640,-0.0990
126006,0.1423,-0.8779,-0.0856
126023,0.1383,-0.8925,-0.0769
126047,0.1288,-0.9231,-0.0725
126070,0.1238,-0.9391,-0.0759
126087,0.1189,-0.9554,-0.0822
126109,0.1091,-0.9890,-0.1008
126132,0.1045,-1.0060,-0.1117
126149,0.0997,-1.0226,-0.1227
126171,0.0948,-1.0386,-0.1327
126192,0.0845,-1.0674,-0.1478
126225,0.0731,-1.0891,-0.1526
126249,0.0671,-1.0964,-0.1501
126273,0.0559,-1.1028,-0.1350
126295,0.0509,-1.1014,-0.1223
126318,0.0465,-1.0969,-0.1064
126335,0.0430,-1.0892,-0.0876
126357,0.0393,-1.0648,-0.0428
126380,0.0392,-1.0487,-0.0177
126404,0.0433,-1.0107,0.0355
126426,0.0475,-0.9900,0.0625
126451,0.0530,-0.9689,0.0894
126468,0.0597,-0.9479,0.1155
126490,0.0764,-0.9087,0.1661
126531,0.0959,-0.8777,0.2151
126549,0.1060,-0.8672,0.2394
126571,0.1250,-0.8599,0.2885
126594,0.1334,-0.8640,0.3132
126611,0.1406,-0.8739,0.3379
126633,0.1465,-0.8893,0.3619
126657,0.1527,-0.9354,0.4049
126674,0.1527,-0.9651,0.4218
126697,0.1506,-0.9978,0.4338
126718,0.1398,-1.0665,0.4388
126742,0.1311,-1.0996,0.4301
126764,0.1204,-1.1300,0.4127
126788,0.0933,-1.1788,0.3511
126811,0.0774,-1.1959,0.3065
126833,0.0425,-1.2146,0.1908
126850,0.0242,-1.2164,0.1208
126867,0.0060,-1.2140,0.0442
126889,-0.0117,-1.2076,-0.0381
126914,-0.0286,-1.1979,-0.1245
126936,-0.0581,-1.1707,-0.3030
126959,-0.0706,-1.1539,-0.3914
126976,-0.0809,-1.1356,-0.4767
126998,-0.0895,-1.1162,-0.5573
127020,-0.1001,-1.0747,-0.6984
127037,-0.1024,-1.0535,-0.7566
127062,-0.1027,-1.0323,-0.8054
127084,-0.0980,-0.9922,-0.8737
127101,-0.0934,-0.9739,-0.8928
127142,-0.0802,-0.9420,-0.9015
127167,-0.0634,-0.9180,-0.8729
127190,-0.0542,-0.9088,-0.8458
127211,-0.0447,-0.9019,-0.8107
127233,-0.0256,-0.8940,-0.7192
127256,-0.0162,-0.8932,-0.6643
127273,-0.0072,-0.8943,-0.6044
127297,0.0093,-0.9012,-0.4735
127320,0.0165,-0.9064,-0.4047
127342,0.0231,-0.9124,-0.3348
127359,0.0288,-0.9186,-0.2651
127381,0.0389,-0.9319,-0.1295
127404,0.0433,-0.9386,-0.0654
127421,0.0476,-0.9451,-0.0046
127444,0.0558,-0.9573,0.1046
127468,0.0599,-0.9628,0.1521
127485,0.0642,-0.9677,0.1945
127508,0.0687,-0.9719,0.2317
127530,0.0786,-0.9781,0.2900
127547,0.0841,-0.9800,0.3115
127570,0.0902,-0.9806,0.3279
127592,0.0969,-0.9802,0.3392
127613,0.1129,-0.9760,0.3486
127636,0.1224,-0.9723,0.3473
127658,0.1334,-0.9675,0.3424
127677,0.1603,-0.9551,0.3242
127700,0.1764,-0.9471,0.3120
127720,0.1945,-0.9382,0.2987
127754,0.2356,-0.9174,0.2722
127780,0.2821,-0.8936,0.2505
127797,0.3065,-0.8811,0.2429
127820,0.3314,-0.8685,0.2380
127842,0.3810,-0.8436,0.2383
127859,0.4050,-0.8313,0.2439
127876,0.4280,-0.8188,0.2534
127899,0.4497,-0.8059,0.2668
127923,0.4879,-0.7777,0.3046
127945,0.5040,-0.7620,0.3282
127968,0.5181,-0.7452,0.3547
127985,0.5299,-0.7275,0.3837
128007,0.5472,-0.6898,0.4467
128029,0.5529,-0.6704,0.4796
128052,0.5566,-0.6508,0.5129
128070,0.5587,-0.6312,0.5460
128087,0.5592,-0.6118,0.5786
128109,0.5559,-0.5740,0.6404
128126,0.5527,-0.5559,0.6689
128149,0.5487,-0.5388,0.6957
128171,0.5396,-0.5081,0.7428
128188,0.5345,-0.4949,0.7627
128210,0.5297,-0.4834,0.7798
128232,0.5248,-0.4736,0.7939
128256,0.5157,-0.4597,0.8126
128281,0.5120,-0.4556,0.8173
128303,0.5062,-0.4521,0.8174
128320,0.5049,-0.4526,0.8134
128360,0.5065,-0.4569,0.7983
128385,0.5101,-0.4600,0.7875
128407,0.5242,-0.4667,0.7593
128430,0.5342,-0.4703,0.7421
128447,0.5460,-0.4744,0.7234
128469,0.5726,-0.4840,0.6842
128486,0.5865,-0.4897,0.6652
128511,0.6001,-0.4962,0.6473
128533,0.6128,-0.5033,0.6312
128555,0.6333,-0.5187,0.6051
128572,0.6403,-0.5267,0.5952
128595,0.6445,-0.5349,0.5875
128617,0.6442,-0.5509,0.5774
128634,0.6394,-0.5583,0.5743
128665,0.6318,-0.5652,0.5720
128690,0.6088,-0.5767,0.5687
128708,0.5938,-0.5811,0.5673
128727,0.5767,-0.5845,0.5657
128749,0.5377,-0.5883,0.5618
128766,0.5164,-0.5887,0.5593
128788,0.4940,-0.5881,0.5569
128811,0.4709,-0.5864,0.5552
128828,0.4475,-0.5840,0.5547
128850,0.4003,-0.5771,0.5613
128873,0.3768,-0.5732,0.5693
128899,0.3317,-0.5657,0.5959
128922,0.3098,-0.5626,0.6141
128944,0.2885,-0.5602,0.6351
128973,0.2466,-0.5586,0.6827
128996,0.2258,-0.5596,0.7081
129020,0.1838,-0.5649,0.7592
129043,0.1624,-0.5691,0.7841
129065,0.1173,-0.5792,0.8303
129205,-0.0542,-0.6111,0.9280
129250,-0.0906,-0.6096,0.9215
129273,-0.0972,-0.6077,0.9153
129291,-0.1008,-0.6050,0.9078
129313,-0.0999,-0.5979,0.8903
129336,-0.0956,-0.5935,0.8810
129353,-0.0892,-0.5886,0.8718
129375,-0.0811,-0.5835,0.8633
129397,-0.0610,-0.5720,0.8491
129416,-0.0499,-0.5659,0.8440
129439,-0.0388,-0.5594,0.8405
129461,-0.0176,-0.5455,0.8376
129491,-0.0085,-0.5295,0.8400
129514,0.0049,-0.5208,0.8425
129531,0.0084,-0.5111,0.8459
129554,0.0094,-0.5006,0.8499
129581,0.0028,-0.4769,0.8591
129598,-0.0048,-0.4635,0.8643
129624,-0.0282,-0.4347,0.8750
129646,-0.0432,-0.4197,0.8806
129700,-0.0959,-0.3757,0.8973
129723,-0.1327,-0.3508,0.9072
129745,-0.1503,-0.3407,0.9115
129768,-0.1669,-0.3324,0.9153
129793,-0.1965,-0.3218,0.9209
129814,-0.2092,-0.3195,0.9229
129831,-0.2205,-0.3191,0.9243
129853,-0.2301,-0.3203,0.9253
129909,-0.2524,-0.3368,0.9237
129934,-0.2543,-0.3424,0.9221
129956,-0.2543,-0.3536,0.9183
129979,-0.2527,-0.3588,0.9163
130003,-0.2502,-0.3634,0.9143
130027,-0.2428,-0.3704,0.9115
130050,-0.2382,-0.3724,0.9109
130079,-0.2274,-0.3732,0.9120
130102,-0.2216,-0.3718,0.9138
130126,-0.2091,-0.3666,0.9198
130149,-0.2025,-0.3630,0.9237
130194,-0.1807,-0.3512,0.9379
130212,-0.1720,-0.3469,0.9430
130234,-0.1624,-0.3425,0.9480
130256,-0.1388,-0.3335,0.9569
130299,-0.1094,-0.3243,0.9629
130322,-0.0748,-0.3157,0.9656
130339,-0.0562,-0.3115,0.9661
130362,-0.0369,-0.3077,0.9659
130384,0.0023,-0.3008,0.9647
130401,0.0215,-0.2979,0.9639
130423,0.0399,-0.2952,0.9628
130440,0.0574,-0.2931,0.9615
130477,0.0883,-0.2903,0.9589
130501,0.1123,-0.2898,0.9561
130518,0.1215,-0.2904,0.9546
130541,0.1289,-0.2916,0.9532
130563,0.1344,-0.2933,0.9519
130580,0.1383,-0.2957,0.9504
130602,0.1414,-0.3015,0.9475
130625,0.1407,-0.3051,0.9459
130682,0.1266,-0.3228,0.9392
130706,0.1204,-0.3280,0.9376
130727,0.1132,-0.3335,0.9360
130749,0.0958,-0.3456,0.9331
130774,0.0858,-0.3521,0.9316
130808,0.0640,-0.3657,0.9283
130831,0.0406,-0.3800,0.9246
130850,0.0289,-0.3871,0.9224
130873,0.0172,-0.3938,0.9199
130895,0.0057,-0.4004,0.9174
130924,-0.0162,-0.4120,0.9120
130947,-0.0364,-0.4213,0.9067
130974,-0.0457,-0.4250,0.9043
130996,-0.0625,-0.4304,0.9000
131018,-0.0699,-0.4323,0.8983
131035,-0.0768,-0.4333,0.8967
131052,-0.0830,-0.4340,0.8955
131075,-0.0885,-0.4340,0.8945
131106,-0.0974,-0.4326,0.8932
131136,-0.1039,-0.4294,0.8925
131159,-0.1062,-0.4275,0.8922
131183,-0.1095,-0.4231,0.8916
131206,-0.1105,-0.4209,0.8912
131226,-0.1111,-0.4187,0.8910
131249,-0.1110,-0.4146,0.8914
131267,-0.1101,-0.4127,0.8920
131289,-0.1086,-0.4110,0.8929
131345,-0.0966,-0.4056,0.9006
131368,-0.0918,-0.4045,0.9033
131385,-0.0867,-0.4036,0.9062
131410,-0.0748,-0.4021,0.9121
131433,-0.0684,-0.4016,0.9152
131450,-0.0614,-0.4012,0.9180
131467,-0.0542,-0.4010,0.9207
131489,-0.0468,-0.4010,0.9231
131526,-0.0229,-0.4021,0.9282
131549,-0.0148,-0.4030,0.9292
131573,0.0021,-0.4052,0.9297
131595,0.0106,-0.4065,0.9293
131618,0.0192,-0.4081,0.9286
131635,0.0277,-0.4099,0.9276
131657,0.0449,-0.4142,0.9252
131675,0.0535,-0.4166,0.9236
131753,0.0874,-0.4269,0.9146
131776,0.1028,-0.4315,0.9078
131809,0.1154,-0.4355,0.8995
131829,0.1201,-0.4371,0.8949
131852,0.1237,-0.4386,0.8900
131869,0.1257,-0.4399,0.8851
131913,0.1223,-0.4437,0.8711
131936,0.1177,-0.4452,0.8671
131960,0.1031,-0.4486,0.8602
131983,0.0935,-0.4507,0.8577
132023,0.0575,-0.4590,0.8539
132044,0.0441,-0.4624,0.8541
132066,0.0303,-0.4659,0.8552
132083,0.0166,-0.4697,0.8571
132121,-0.0211,-0.4801,0.8665
132144,-0.0319,-0.4829,0.8707
132161,-0.0415,-0.4854,0.8754
132183,-0.0502,-0.4873,0.8806
132205,-0.0651,-0.4901,0.8934
132222,-0.0718,-0.4910,0.9014
132245,-0.0784,-0.4915,0.9105
132265,-0.0853,-0.4913,0.9209
132322,-0.1187,-0.4851,0.9703
132346,-0.1289,-0.4817,0.9824
132364,-0.1399,-0.4774,0.9932
132386,-0.1635,-0.4657,1.0087
132409,-0.1755,-0.4580,1.0125
132426,-0.1875,-0.4492,1.0131
132448,-0.2100,-0.4281,1.0040
132470,-0.2201,-0.4163,0.9945
132508,-0.2374,-0.3911,0.9670
132526,-0.2445,-0.3783,0.9498
132563,-0.2606,-0.3428,0.8925
132586,-0.2645,-0.3329,0.8734
132603,-0.2681,-0.3243,0.8553
132626,-0.2711,-0.3171,0.8389
132651,-0.2769,-0.3080,0.8120
132668,-0.2795,-0.3059,0.8024
132691,-0.2822,-0.3057,0.7953
132713,-0.2875,-0.3102,0.7896
132770,-0.2943,-0.3273,0.7994
132792,-0.2960,-0.3350,0.8068
132809,-0.2971,-0.3434,0.8154
132831,-0.2976,-0.3611,0.8356
132854,-0.2966,-0.3701,0.8462
132871,-0.2950,-0.3789,0.8567
132893,-0.2926,-0.3875,0.8667
132915,-0.2854,-0.4032,0.8839
132947,-0.2750,-0.4167,0.8961
132971,-0.2688,-0.4227,0.9001
132992,-0.2618,-0.4280,0.9026
133014,-0.2458,-0.4373,0.9031
133037,-0.2368,-0.4413,0.9014
133054,-0.2272,-0.4452,0.8987
133076,-0.2064,-0.4525,0.8914
133098,-0.1954,-0.4558,0.8873
133115,-0.1841,-0.4589,0.8835
133132,-0.1725,-0.4613,0.8801
133155,-0.1606,-0.4631,0.8774
133199,-0.1234,-0.4624,0.8749
133222,-0.1107,-0.4598,0.8761
133246,-0.0851,-0.4517,0.8805
133279,-0.0599,-0.4397,0.8868
133310,-0.0361,-0.4254,0.8939
133337,-0.0250,-0.4180,0.8973
133359,-0.0049,-0.4031,0.9037
133424,0.0255,-0.3787,0.9126
133446,0.0309,-0.3745,0.9137
133466,0.0354,-0.3715,0.9142
133485,0.0389,-0.3695,0.9139
133504,0.0417,-0.3688,0.9130
133527,0.0448,-0.3708,0.9086
133549,0.0453,-0.3735,0.9054
133580,0.0443,-0.3824,0.8972
133610,0.0414,-0.3951,0.8876
133633,0.0393,-0.4027,0.8824
133657,0.0343,-0.4192,0.8722
133680,0.0315,-0.4279,0.8671
133702,0.0286,-0.4365,0.8621
133719,0.0255,-0.4451,0.8572
133744,0.0195,-0.4613,0.8480
133767,0.0164,-0.4688,0.8439
133831,0.0033,-0.4933,0.8312
133851,-0.0006,-0.4985,0.8298
133883,-0.0100,-0.5088,0.8313
133903,-0.0225,-0.5176,0.8407
133927,-0.0302,-0.5206,0.8489
133949,-0.0388,-0.5223,0.8590
133970,-0.0591,-0.5212,0.8842
134000,-0.0820,-0.5137,0.9130
134022,-0.0939,-0.5073,0.9274
134047,-0.1055,-0.4994,0.9410
134069,-0.1270,-0.4799,0.9645
134092,-0.1365,-0.4685,0.9734
134110,-0.1449,-0.4565,0.9800
134133,-0.1577,-0.4319,0.9855
134150,-0.1621,-0.4198,0.9844
134181,-0.1650,-0.3770,0.9750
134212,-0.1669,-0.3871,0.9669
134235,-0.1641,-0.3700,0.9454
134252,-0.1614,-0.3633,0.9326
134275,-0.1580,-0.3580,0.9188
134297,-0.1541,-0.3541,0.9045
134314,-0.1453,-0.3513,0.8757
134336,-0.1407,-0.3523,0.8619
134353,-0.1365,-0.3547,0.8491
134410,-0.1251,-0.3708,0.8204
134433,-0.1184,-0.3870,0.8127
134450,-0.1146,-0.3962,0.8130
134496,-0.0988,-0.4253,0.8302
134518,-0.0908,-0.4341,0.8412
134539,-0.0814,-0.4417,0.8546
134560,-0.0704,-0.4478,0.8698
134589,-0.0447,-0.4545,0.9039
134610,-0.0305,-0.4547,0.9219
134633,-0.0013,-0.4490,0.9575
134656,0.0128,-0.4434,0.9741
134678,0.0392,-0.4274,1.0028
134695,0.0508,-0.4177,1.0138
134717,0.0613,-0.4075,1.0222
134763,0.0850,-0.3773,1.0293
134813,0.0956,-0.3546,1.0078
134837,0.0959,-0.3495,0.9951
134859,0.0948,-0.3457,0.9803
134878,0.0880,-0.3423,0.9465
134900,0.0824,-0.3425,0.9287
134922,0.0754,-0.3440,0.9108
134944,0.0579,-0.3503,0.8773
134967,0.0475,-0.3552,0.8625
134999,0.0244,-0.3682,0.8395
135022,0.0118,-0.3760,0.8319
135039,-0.0011,-0.3844,0.8275
135061,-0.0276,-0.4012,0.8295
135084,-0.0409,-0.4088,0.8357
135101,-0.0542,-0.4154,0.8451
135146,-0.0938,-0.4271,0.8879
135166,-0.1071,-0.4280,0.9047
135184,-0.1204,-0.4272,0.9215
135203,-0.1337,-0.4249,0.9377
135245,-0.1736,-0.4084,0.9772
135267,-0.1864,-0.3999,0.9860
135288,-0.1986,-0.3901,0.9924
135310,-0.2216,-0.3678,0.9980
135330,-0.2321,-0.3562,0.9972
135353,-0.2421,-0.3450,0.9941
135375,-0.2604,-0.3250,0.9819
135392,-0.2686,-0.3171,0.9731
135449,-0.2891,-0.3036,0.9382
135473,-0.2988,-0.3029,0.9103
135490,-0.3024,-0.3046,0.8959
135513,-0.3051,-0.3075,0.8815
135535,-0.3066,-0.3113,0.8674
135552,-0.3074,-0.3158,0.8540
135574,-0.3059,-0.3269,0.8293
135597,-0.3040,-0.3333,0.8185
135626,-0.2972,-0.3474,0.8002
135647,-0.2927,-0.3553,0.7931
135671,-0.2815,-0.3727,0.7836
135692,-0.2747,-0.3820,0.7812
135712,-0.2672,-0.3918,0.7805
135734,-0.2590,-0.4021,0.7812
135755,-0.2405,-0.4242,0.7861
135779,-0.2301,-0.4360,0.7899
135847,-0.1836,-0.4871,0.8107
135868,-0.1583,-0.5122,0.8242
135891,-0.1454,-0.5236,0.8318
135913,-0.1321,-0.5337,0.8396
135930,-0.1185,-0.5424,0.8475
135952,-0.0906,-0.5547,0.8630
135975,-0.0765,-0.5582,0.8701
135992,-0.0625,-0.5601,0.8766
136009,-0.0488,-0.5603,0.8823
136031,-0.0355,-0.5593,0.8873
136075,-0.0001,-0.5502,0.8961
136106,0.0184,-0.5415,0.8965
136124,0.0260,-0.5370,0.8949
136146,0.0323,-0.5326,0.8923
136168,0.0416,-0.5245,0.8839
136185,0.0447,-0.5211,0.8783
136202,0.0469,-0.5181,0.8718
136225,0.0483,-0.5155,0.8647
136272,0.0490,-0.5111,0.8406
136311,0.0475,-0.5116,0.8153
136335,0.0454,-0.5149,0.8075
136357,0.0442,-0.5176,0.8004
136380,0.0415,-0.5248,0.7892
136408,0.0400,-0.5292,0.7853
136426,0.0385,-0.5339,0.7827
136482,0.0327,-0.5568,0.7843
136505,0.0311,-0.5632,0.7876
136522,0.0295,-0.5695,0.7921
136546,0.0250,-0.5803,0.8042
136569,0.0221,-0.5842,0.8112
136586,0.0186,-0.5870,0.8182
136608,0.0143,-0.5884,0.8253
136625,0.0093,-0.5884,0.8318
136662,-0.0101,-0.5796,0.8480
136689,-0.0177,-0.5740,0.8522
136711,-0.0344,-0.5587,0.8590
136735,-0.0431,-0.5492,0.8619
136755,-0.0519,-0.5388,0.8644
136775,-0.0692,-0.5161,0.8687
136796,-0.0775,-0.5048,0.8707
136819,-0.0856,-0.4940,0.8727
136842,-0.1008,-0.4763,0.8766
136889,-0.1140,-0.4652,0.8800
136912,-0.1248,-0.4618,0.8820
136935,-0.1292,-0.4629,0.8820
136957,-0.1359,-0.4702,0.8790
136974,-0.1383,-0.4762,0.8757
136997,-0.1403,-0.4836,0.8712
137024,-0.1427,-0.5015,0.8579
137063,-0.1434,-0.5221,0.8396
137083,-0.1429,-0.5330,0.8291
137104,-0.1418,-0.5438,0.8179
137126,-0.1378,-0.5648,0.7944
137149,-0.1348,-0.5747,0.7828
137173,-0.1265,-0.5922,0.7609
137196,-0.1216,-0.5997,0.7509
137218,-0.1160,-0.6063,0.7418
137257,-0.0958,-0.6202,0.7212
137280,-0.0880,-0.6228,0.7168
137300,-0.0797,-0.6241,0.7136
137324,-0.0623,-0.6237,0.7111
137347,-0.0535,-0.6217,0.7113
137364,-0.0448,-0.6189,0.7123
137386,-0.0283,-0.6110,0.7157
137408,-0.0208,-0.6063,0.7177
137432,-0.0137,-0.6014,0.7194
137449,-0.0071,-0.5966,0.7209
137471,0.0044,-0.5868,0.7238
137521,0.0171,-0.5709,0.7339
137544,0.0203,-0.5645,0.7410
137561,0.0228,-0.5571,0.7506
137583,0.0250,-0.5488,0.7631
137605,0.0286,-0.5282,0.7965
137637,0.0315,-0.5024,0.8396
137654,0.0330,-0.4878,0.8635
137702,0.0396,-0.4398,0.9369
137723,0.0427,-0.4233,0.9594
137745,0.0466,-0.4071,0.9800
137764,0.0513,-0.3912,0.9982
137786,0.0620,-0.3619,1.0261
137811,0.0677,-0.3491,1.0358
137833,0.0793,-0.3280,1.0465
137861,0.0847,-0.3202,1.0480
137918,0.1013,-0.3058,1.0356
137941,0.1041,-0.3057,1.0298
137959,0.1066,-0.3065,1.0236
137981,0.1099,-0.3096,1.0110
138003,0.1108,-0.3113,1.0051
138021,0.1116,-0.3126,0.9999
138043,0.1117,-0.3136,0.9954
138060,0.1113,-0.3137,0.9921
138097,0.1067,-0.3074,0.9899
138120,0.1039,-0.3029,0.9922
138144,0.1003,-0.2971,0.9958
138166,0.0916,-0.2827,1.0070
138189,0.0864,-0.2743,1.0137
138206,0.0809,-0.2655,1.0206
138246,0.0643,-0.2380,1.0380
138263,0.0593,-0.2292,1.0413
138293,0.0514,-0.2139,1.0424
138316,0.0487,-0.2076,1.0398
138333,0.0471,-0.2025,1.0349
138356,0.0465,-0.1987,1.0278
138378,0.0486,-0.1951,1.0079
138398,0.0511,-0.1953,0.9956
138421,0.0544,-0.1968,0.9821
138442,0.0586,-0.1996,0.9679
138501,0.0811,-0.2195,0.9120
