sys_ms,acc_x,acc_y,acc_z
758318,-0.0260,-0.8250,0.5398
758480,-0.0216,-0.8262,0.5396
758500,-0.0211,-0.8264,0.5397
758520,-0.0205,-0.8267,0.5399
758543,-0.0204,-0.8267,0.5402
758569,-0.0203,-0.8267,0.5406
758592,-0.0203,-0.8265,0.5408
758616,-0.0206,-0.8262,0.5413
758647,-0.0209,-0.8258,0.5415
758670,-0.0215,-0.8257,0.5417
758687,-0.0219,-0.8254,0.5419
758710,-0.0223,-0.8252,0.5421
758734,-0.0233,-0.8248,0.5426
758762,-0.0237,-0.8246,0.5427
758783,-0.0245,-0.8241,0.5432
758808,-0.0249,-0.8240,0.5433
758830,-0.0255,-0.8236,0.5437
758852,-0.0256,-0.8235,0.5438
758869,-0.0258,-0.8234,0.5439
758892,-0.0258,-0.8232,0.5441
758914,-0.0255,-0.8235,0.5443
758931,-0.0253,-0.8237,0.5443
758961,-0.0247,-0.8250,0.5444
758983,-0.0242,-0.8258,0.5444
759019,-0.0233,-0.8279,0.5442
759042,-0.0228,-0.8292,0.5438
759059,-0.0222,-0.8304,0.5432
759081,-0.0206,-0.8328,0.5411
759104,-0.0195,-0.8336,0.5398
759121,-0.0181,-0.8344,0.5382
759145,-0.0144,-0.8348,0.5345
759168,-0.0121,-0.8345,0.5323
759203,-0.0067,-0.8330,0.5276
759226,-0.0007,-0.8309,0.5222
759257,0.0055,-0.8290,0.5166
759274,0.0085,-0.8282,0.5140
759293,0.0114,-0.8276,0.5115
759316,0.0140,-0.8273,0.5092
759333,0.0164,-0.8270,0.5071
759351,0.0184,-0.8269,0.5052
759373,0.0215,-0.8273,0.5024
759431,0.0231,-0.8284,0.5006
759451,0.0228,-0.8289,0.5006
759470,0.0223,-0.8292,0.5009
759491,0.0203,-0.8300,0.5020
759513,0.0189,-0.8302,0.5028
759530,0.0172,-0.8303,0.5038
759563,0.0135,-0.8298,0.5060
759581,0.0116,-0.8293,0.5072
759608,0.0073,-0.8274,0.5098
759631,0.0052,-0.8259,0.5111
759655,0.0012,-0.8221,0.5142
759678,-0.0005,-0.8198,0.5159
759700,-0.0022,-0.8170,0.5178
759717,-0.0035,-0.8140,0.5200
759739,-0.0052,-0.8065,0.5258
759762,-0.0054,-0.8024,0.5295
759799,-0.0039,-0.7932,0.5392
759820,0.0005,-0.7838,0.5524
759845,0.0040,-0.7792,0.5604
759868,0.0135,-0.7705,0.5793
759891,0.0197,-0.7666,0.5902
759915,0.0342,-0.7596,0.6144
759937,0.0424,-0.7565,0.6272
759960,0.0510,-0.7534,0.6403
759977,0.0598,-0.7506,0.6533
759994,0.0685,-0.7477,0.6663
760016,0.0853,-0.7419,0.6912
760051,0.1000,-0.7357,0.7140
760074,0.1064,-0.7323,0.7246
760098,0.1168,-0.7245,0.7438
760121,0.1210,-0.7201,0.7523
760143,0.1241,-0.7153,0.7601
760180,0.1296,-0.7007,0.7788
760197,0.1301,-0.6962,0.7834
760240,0.1290,-0.6897,0.7902
760263,0.1249,-0.6879,0.7931
760288,0.1215,-0.6893,0.7932
760309,0.1171,-0.6925,0.7921
760330,0.1050,-0.7045,0.7865
760355,0.0970,-0.7134,0.7815
760377,0.0773,-0.7371,0.7665
760395,0.0652,-0.7518,0.7561
760454,0.0214,-0.8064,0.7130
760472,0.0048,-0.8273,0.6948
760494,-0.0299,-0.8712,0.6534
760516,-0.0474,-0.8937,0.6306
760536,-0.0647,-0.9161,0.6064
760555,-0.0817,-0.9380,0.5813
760577,-0.1136,-0.9788,0.5288
760602,-0.1283,-0.9968,0.5020
760629,-0.1536,-1.0265,0.4481
760652,-0.1639,-1.0375,0.4214
760676,-0.1792,-1.0504,0.3696
760699,-0.1841,-1.0520,0.3451
760721,-0.1869,-1.0503,0.3215
760738,-0.1874,-1.0374,0.2792
760760,-0.1852,-1.0266,0.2609
760791,-0.1768,-0.9985,0.2316
760810,-0.1711,-0.9821,0.2213
760830,-0.1648,-0.9647,0.2141
760852,-0.1580,-0.9468,0.2102
760878,-0.1440,-0.9114,0.2119
760901,-0.1375,-0.8944,0.2170
760925,-0.1254,-0.8634,0.2345
760948,-0.1201,-0.8496,0.2460
760970,-0.1115,-0.8270,0.2720
760987,-0.1080,-0.8185,0.2855
761012,-0.1049,-0.8121,0.2992
761034,-0.1017,-0.8080,0.3127
761069,-0.0896,-0.8079,0.3518
761093,-0.0840,-0.8116,0.3641
761118,-0.0701,-0.8237,0.3878
761140,-0.0621,-0.8317,0.3992
761163,-0.0536,-0.8407,0.4103
761180,-0.0447,-0.8505,0.4211
761202,-0.0264,-0.8706,0.4420
761219,-0.0171,-0.8802,0.4517
761261,0.0009,-0.8977,0.4685
761284,0.0173,-0.9109,0.4803
761309,0.0250,-0.9158,0.4840
761330,0.0322,-0.9194,0.4861
761351,0.0455,-0.9227,0.4863
761376,0.0516,-0.9226,0.4847
761403,0.0625,-0.9192,0.4788
761421,0.0670,-0.9163,0.4747
761472,0.0757,-0.9045,0.4607
761508,0.0759,-0.8955,0.4518
761526,0.0742,-0.8909,0.4480
761546,0.0670,-0.8817,0.4424
761565,0.0616,-0.8774,0.4407
761582,0.0552,-0.8734,0.4398
761602,0.0477,-0.8696,0.4397
761626,0.0396,-0.8662,0.4403
761665,0.0109,-0.8574,0.4457
761704,-0.0096,-0.8529,0.4512
761722,-0.0199,-0.8510,0.4542
761744,-0.0394,-0.8480,0.4606
761767,-0.0485,-0.8469,0.4636
761784,-0.0568,-0.8461,0.4667
761803,-0.0642,-0.8456,0.4695
761822,-0.0708,-0.8453,0.4723
761856,-0.0811,-0.8456,0.4772
761879,-0.0872,-0.8467,0.4813
761904,-0.0887,-0.8474,0.4829
761926,-0.0891,-0.8492,0.4857
761949,-0.0880,-0.8501,0.4867
761966,-0.0863,-0.8510,0.4874
762008,-0.0786,-0.8530,0.4885
762050,-0.0724,-0.8535,0.4889
762073,-0.0663,-0.8534,0.4895
762098,-0.0634,-0.8531,0.4901
762120,-0.0605,-0.8527,0.4910
762142,-0.0557,-0.8516,0.4932
762159,-0.0536,-0.8508,0.4945
762182,-0.0518,-0.8502,0.4960
762204,-0.0487,-0.8490,0.4989
762221,-0.0476,-0.8484,0.5002
762238,-0.0465,-0.8480,0.5013
762261,-0.0455,-0.8478,0.5023
762300,-0.0439,-0.8477,0.5032
762324,-0.0425,-0.8483,0.5028
762348,-0.0416,-0.8489,0.5022
762368,-0.0400,-0.8507,0.4998
762390,-0.0392,-0.8518,0.4982
762415,-0.0383,-0.8531,0.4965
762435,-0.0365,-0.8558,0.4927
762452,-0.0356,-0.8573,0.4906
762518,-0.0320,-0.8628,0.4827
762545,-0.0311,-0.8640,0.4808
762567,-0.0294,-0.8661,0.4773
762590,-0.0287,-0.8669,0.4757
762608,-0.0281,-0.8676,0.4741
762640,-0.0269,-0.8682,0.4714
762658,-0.0265,-0.8683,0.4703
762682,-0.0259,-0.8682,0.4684
762705,-0.0259,-0.8679,0.4677
762729,-0.0259,-0.8677,0.4672
762751,-0.0264,-0.8668,0.4667
762774,-0.0267,-0.8665,0.4667
762791,-0.0272,-0.8660,0.4670
762813,-0.0287,-0.8650,0.4681
762835,-0.0295,-0.8645,0.4689
762869,-0.0315,-0.8634,0.4706
762890,-0.0326,-0.8629,0.4716
762914,-0.0350,-0.8617,0.4731
762934,-0.0364,-0.8612,0.4738
762957,-0.0377,-0.8605,0.4744
762981,-0.0403,-0.8591,0.4746
763004,-0.0416,-0.8583,0.4744
763026,-0.0441,-0.8562,0.4723
763043,-0.0453,-0.8551,0.4703
763060,-0.0463,-0.8539,0.4678
763082,-0.0472,-0.8525,0.4645
763122,-0.0488,-0.8501,0.4561
763145,-0.0500,-0.8478,0.4459
763170,-0.0504,-0.8468,0.4403
763192,-0.0507,-0.8455,0.4293
763215,-0.0505,-0.8450,0.4243
763246,-0.0497,-0.8445,0.4170
763265,-0.0491,-0.8445,0.4154
763288,-0.0483,-0.8444,0.4154
763310,-0.0465,-0.8441,0.4213
763335,-0.0454,-0.8440,0.4274
763358,-0.0431,-0.8436,0.4453
763382,-0.0417,-0.8435,0.4569
763403,-0.0402,-0.8433,0.4698
763424,-0.0364,-0.8425,0.4988
763445,-0.0341,-0.8419,0.5139
763470,-0.0312,-0.8411,0.5292
763490,-0.0245,-0.8389,0.5582
763539,-0.0107,-0.8340,0.5938
763563,-0.0052,-0.8323,0.6027
763581,0.0006,-0.8306,0.6101
763603,0.0137,-0.8276,0.6202
763625,0.0206,-0.8264,0.6232
763645,0.0280,-0.8254,0.6249
763669,0.0430,-0.8243,0.6248
763691,0.0505,-0.8241,0.6232
763716,0.0581,-0.8241,0.6207
763739,0.0731,-0.8243,0.6135
763764,0.0804,-0.8246,0.6091
763786,0.0942,-0.8246,0.5995
763809,0.1007,-0.8242,0.5944
763826,0.1067,-0.8234,0.5894
763866,0.1210,-0.8177,0.5759
763883,0.1244,-0.8146,0.5724
763908,0.1273,-0.8105,0.5697
763931,0.1299,-0.8058,0.5679
763955,0.1338,-0.7943,0.5676
763978,0.1354,-0.7880,0.5693
764000,0.1377,-0.7753,0.5762
764017,0.1382,-0.7697,0.5809
764040,0.1379,-0.7651,0.5862
764062,0.1367,-0.7621,0.5913
764105,0.1241,-0.7657,0.6013
764128,0.1162,-0.7725,0.6011
764145,0.1062,-0.7823,0.5985
764168,0.0793,-0.8125,0.5845
764191,0.0627,-0.8329,0.5726
764208,0.0442,-0.8566,0.5576
764230,0.0027,-0.9122,0.5187
764253,-0.0194,-0.9431,0.4955
764277,-0.0417,-0.9751,0.4703
764294,-0.0857,-1.0385,0.4169
764316,-0.1066,-1.0681,0.3895
764348,-0.1442,-1.1193,0.3358
764371,-0.1605,-1.1395,0.3103
764394,-0.1874,-1.1666,0.2632
764414,-0.1978,-1.1731,0.2419
764435,-0.2059,-1.1746,0.2227
764473,-0.2164,-1.1627,0.1895
764490,-0.2188,-1.1498,0.1757
764512,-0.2185,-1.1123,0.1536
764564,-0.2078,-1.0354,0.1351
764591,-0.1954,-0.9785,0.1338
764613,-0.1882,-0.9506,0.1366
764636,-0.1807,-0.9237,0.1417
764653,-0.1726,-0.8986,0.1493
764675,-0.1560,-0.8552,0.1710
764692,-0.1476,-0.8378,0.1849
764735,-0.1304,-0.8121,0.2181
764774,-0.1030,-0.7959,0.2780
764791,-0.0933,-0.7958,0.2992
764814,-0.0834,-0.7977,0.3204
764836,-0.0731,-0.8016,0.3416
764853,-0.0627,-0.8071,0.3622
764875,-0.0415,-0.8217,0.4012
764900,-0.0309,-0.8301,0.4193
764924,-0.0101,-0.8484,0.4518
764947,-0.0004,-0.8577,0.4661
764971,0.0176,-0.8759,0.4901
764994,0.0254,-0.8843,0.4998
765016,0.0323,-0.8922,0.5079
765033,0.0383,-0.8994,0.5145
765055,0.0476,-0.9111,0.5228
765081,0.0508,-0.9156,0.5247
765099,0.0530,-0.9189,0.5249
765146,0.0543,-0.9216,0.5172
765169,0.0510,-0.9178,0.5056
765192,0.0480,-0.9148,0.4980
765214,0.0442,-0.9113,0.4895
765231,0.0397,-0.9075,0.4801
765253,0.0288,-0.9005,0.4596
765276,0.0229,-0.8976,0.4491
765293,0.0170,-0.8953,0.4388
765310,0.0112,-0.8937,0.4287
765332,0.0000,-0.8921,0.4097
765374,-0.0104,-0.8922,0.3927
765398,-0.0198,-0.8932,0.3782
765421,-0.0240,-0.8938,0.3719
765441,-0.0280,-0.8944,0.3666
765461,-0.0316,-0.8950,0.3618
765483,-0.0381,-0.8960,0.3550
765505,-0.0408,-0.8964,0.3528
765528,-0.0432,-0.8966,0.3513
765585,-0.0509,-0.8956,0.3512
765608,-0.0524,-0.8951,0.3522
765625,-0.0538,-0.8944,0.3535
765647,-0.0563,-0.8932,0.3569
765670,-0.0573,-0.8926,0.3590
765705,-0.0588,-0.8915,0.3633
765723,-0.0594,-0.8911,0.3655
765765,-0.0603,-0.8906,0.3722
765785,-0.0603,-0.8909,0.3744
765808,-0.0601,-0.8912,0.3765
765830,-0.0592,-0.8922,0.3802
765853,-0.0587,-0.8928,0.3818
765870,-0.0582,-0.8936,0.3833
765892,-0.0573,-0.8947,0.3856
765913,-0.0568,-0.8953,0.3866
765950,-0.0559,-0.8961,0.3884
765973,-0.0551,-0.8969,0.3901
766004,-0.0547,-0.8971,0.3911
766022,-0.0544,-0.8973,0.3921
766044,-0.0537,-0.8976,0.3943
766067,-0.0535,-0.8977,0.3955
766084,-0.0531,-0.8977,0.3967
766106,-0.0522,-0.8973,0.3992
766129,-0.0519,-0.8971,0.4004
766158,-0.0507,-0.8960,0.4023
766181,-0.0499,-0.8951,0.4032
766205,-0.0480,-0.8931,0.4045
766228,-0.0468,-0.8917,0.4052
766250,-0.0453,-0.8901,0.4056
766267,-0.0437,-0.8883,0.4060
766307,-0.0381,-0.8817,0.4070
766332,-0.0358,-0.8790,0.4075
766349,-0.0332,-0.8760,0.4081
766371,-0.0272,-0.8693,0.4104
766414,-0.0199,-0.8613,0.4146
766437,-0.0107,-0.8524,0.4210
766458,-0.0056,-0.8477,0.4253
766481,-0.0001,-0.8428,0.4305
766500,0.0118,-0.8334,0.4438
766524,0.0182,-0.8290,0.4520
766550,0.0311,-0.8215,0.4720
766575,0.0376,-0.8185,0.4836
766646,0.0615,-0.8121,0.5396
766664,0.0668,-0.8116,0.5549
766686,0.0763,-0.8116,0.5859
766709,0.0807,-0.8118,0.6011
766726,0.0850,-0.8119,0.6156
766750,0.0930,-0.8116,0.6423
766773,0.0969,-0.8110,0.6542
766803,0.1051,-0.8086,0.6747
766826,0.1093,-0.8068,0.6832
766850,0.1182,-0.8014,0.6967
766873,0.1229,-0.7979,0.7017
766913,0.1375,-0.7849,0.7091
766930,0.1421,-0.7799,0.7087
766952,0.1465,-0.7745,0.7070
766975,0.1505,-0.7692,0.7041
767002,0.1575,-0.7583,0.6945
767025,0.1602,-0.7533,0.6881
767049,0.1631,-0.7457,0.6726
767072,0.1628,-0.7437,0.6638
767094,0.1578,-0.7444,0.6438
767111,0.1522,-0.7478,0.6326
767134,0.1440,-0.7537,0.6201
767158,0.1187,-0.7749,0.5905
767193,0.0807,-0.8103,0.5530
767217,0.0571,-0.8334,0.5309
767242,0.0032,-0.8885,0.4805
767265,-0.0261,-0.9196,0.4524
767287,-0.0562,-0.9519,0.4227
767304,-0.0859,-0.9849,0.3921
767326,-0.1427,-1.0490,0.3293
767349,-0.1683,-1.0785,0.2985
767386,-0.2111,-1.1285,0.2400
767410,-0.2400,-1.1617,0.1891
767433,-0.2489,-1.1708,0.1672
767453,-0.2542,-1.1743,0.1478
767473,-0.2543,-1.1650,0.1172
767495,-0.2500,-1.1526,0.1058
767519,-0.2434,-1.1356,0.0972
767542,-0.2250,-1.0906,0.0879
767597,-0.1908,-1.0063,0.0941
767622,-0.1681,-0.9474,0.1105
767645,-0.1577,-0.9191,0.1219
767667,-0.1483,-0.8922,0.1351
767684,-0.1399,-0.8672,0.1500
767706,-0.1267,-0.8245,0.1837
767729,-0.1217,-0.8075,0.2023
767746,-0.1177,-0.7936,0.2218
767763,-0.1144,-0.7827,0.2423
767785,-0.1091,-0.7701,0.2854
767844,-0.1011,-0.7703,0.3536
767867,-0.0938,-0.7797,0.3989
767886,-0.0891,-0.7865,0.4210
767909,-0.0837,-0.7944,0.4425
767931,-0.0776,-0.8035,0.4631
767948,-0.0706,-0.8132,0.4829
767965,-0.0541,-0.8342,0.5193
767987,-0.0447,-0.8450,0.5355
768022,-0.0243,-0.8657,0.5631
768045,-0.0135,-0.8751,0.5740
768069,0.0082,-0.8910,0.5894
768092,0.0189,-0.8972,0.5936
768135,0.0491,-0.9078,0.5930
768176,0.0663,-0.9086,0.5828
768194,0.0736,-0.9073,0.5754
768229,0.0900,-0.8979,0.5481
768251,0.0931,-0.8933,0.5382
768276,0.0951,-0.8883,0.5283
768298,0.0952,-0.8772,0.5098
768321,0.0934,-0.8715,0.5015
768338,0.0905,-0.8657,0.4941
768360,0.0815,-0.8547,0.4824
768382,0.0757,-0.8499,0.4783
768419,0.0621,-0.8412,0.4736
768440,0.0547,-0.8378,0.4729
768462,0.0394,-0.8323,0.4746
768479,0.0319,-0.8302,0.4768
768498,0.0244,-0.8286,0.4797
768518,0.0175,-0.8274,0.4833
768540,0.0109,-0.8264,0.4873
768561,-0.0007,-0.8248,0.4963
768593,-0.0096,-0.8235,0.5060
768643,-0.0172,-0.8204,0.5204
768668,-0.0181,-0.8190,0.5249
768690,-0.0172,-0.8157,0.5333
768712,-0.0155,-0.8137,0.5372
768729,-0.0129,-0.8116,0.5409
768772,-0.0005,-0.8055,0.5510
768793,0.0050,-0.8036,0.5542
768816,0.0110,-0.8020,0.5573
768838,0.0240,-0.7994,0.5635
768876,0.0381,-0.7982,0.5697
768899,0.0453,-0.7983,0.5729
768923,0.0597,-0.7998,0.5792
768946,0.0668,-0.8013,0.5822
768968,0.0737,-0.8032,0.5847
768985,0.0804,-0.8057,0.5870
769005,0.0933,-0.8112,0.5905
769029,0.0992,-0.8142,0.5914
769064,0.1100,-0.8201,0.5918
769088,0.1189,-0.8248,0.5909
769113,0.1227,-0.8265,0.5902
769135,0.1292,-0.8280,0.5891
769157,0.1320,-0.8274,0.5887
769174,0.1343,-0.8258,0.5884
769197,0.1365,-0.8231,0.5883
769221,0.1399,-0.8141,0.5878
769264,0.1425,-0.7999,0.5865
769287,0.1447,-0.7812,0.5852
769304,0.1459,-0.7708,0.5846
769327,0.1471,-0.7601,0.5842
769349,0.1492,-0.7401,0.5844
769366,0.1497,-0.7317,0.5846
769394,0.1495,-0.7252,0.5851
769417,0.1460,-0.7194,0.5853
769454,0.1364,-0.7260,0.5835
769477,0.1285,-0.7347,0.5808
769499,0.1052,-0.7651,0.5695
769521,0.0894,-0.7869,0.5599
769542,0.0707,-0.8129,0.5474
769566,0.0256,-0.8756,0.5132
769589,0.0001,-0.9110,0.4921
769611,-0.0266,-0.9479,0.4686
769666,-0.1338,-1.0896,0.3627
769697,-0.1783,-1.1429,0.3094
769714,-0.1965,-1.1622,0.2844
769737,-0.2115,-1.1758,0.2609
769759,-0.2233,-1.1831,0.2389
769776,-0.2366,-1.1793,0.2009
769798,-0.2385,-1.1685,0.1851
769821,-0.2380,-1.1525,0.1713
769851,-0.2307,-1.1077,0.1503
769874,-0.2251,-1.0806,0.1432
769898,-0.2119,-1.0212,0.1357
769921,-0.2053,-0.9904,0.1356
769943,-0.1934,-0.9299,0.1426
769962,-0.1885,-0.9012,0.1497
770006,-0.1792,-0.8267,0.1833
770024,-0.1779,-0.8065,0.1979
770048,-0.1770,-0.7891,0.2135
770070,-0.1768,-0.7743,0.2301
770105,-0.1755,-0.7468,0.2808
770127,-0.1743,-0.7435,0.2966
770152,-0.1724,-0.7433,0.3116
770174,-0.1653,-0.7529,0.3379
770197,-0.1598,-0.7625,0.3492
770214,-0.1528,-0.7750,0.3596
770238,-0.1346,-0.8073,0.3770
770260,-0.1238,-0.8259,0.3839
770295,-0.1000,-0.8655,0.3945
770319,-0.0757,-0.9044,0.4009
770343,-0.0641,-0.9221,0.4030
770366,-0.0532,-0.9381,0.4044
770388,-0.0345,-0.9634,0.4070
770405,-0.0271,-0.9722,0.4084
770427,-0.0211,-0.9783,0.4100
770448,-0.0166,-0.9817,0.4120
770489,-0.0118,-0.9775,0.4199
770510,-0.0129,-0.9722,0.4233
770534,-0.0182,-0.9569,0.4309
770554,-0.0219,-0.9474,0.4351
770576,-0.0261,-0.9371,0.4393
770610,-0.0355,-0.9146,0.4475
770643,-0.0447,-0.8911,0.4548
770701,-0.0569,-0.8489,0.4655
770726,-0.0579,-0.8405,0.4672
770748,-0.0569,-0.8269,0.4695
770770,-0.0547,-0.8219,0.4703
770787,-0.0515,-0.8182,0.4708
770810,-0.0474,-0.8157,0.4712
770832,-0.0363,-0.8143,0.4713
770849,-0.0295,-0.8156,0.4713
770866,-0.0222,-0.8176,0.4713
770889,-0.0144,-0.8208,0.4716
770931,0.0107,-0.8346,0.4740
770951,0.0192,-0.8402,0.4756
770978,0.0356,-0.8513,0.4800
771000,0.0433,-0.8564,0.4827
771023,0.0507,-0.8612,0.4858
771040,0.0574,-0.8652,0.4891
771062,0.0692,-0.8711,0.4962
771085,0.0741,-0.8728,0.4998
771119,0.0819,-0.8738,0.5070
771142,0.0850,-0.8730,0.5106
771166,0.0895,-0.8695,0.5181
771189,0.0909,-0.8668,0.5219
771211,0.0930,-0.8597,0.5300
771228,0.0936,-0.8555,0.5343
771267,0.0944,-0.8455,0.5427
771285,0.0946,-0.8397,0.5468
771312,0.0955,-0.8275,0.5538
771335,0.0961,-0.8210,0.5568
771359,0.0984,-0.8079,0.5608
771382,0.1001,-0.8013,0.5620
771404,0.1022,-0.7949,0.5626
771421,0.1046,-0.7889,0.5627
771440,0.1091,-0.7788,0.5613
771461,0.1105,-0.7751,0.5596
771505,0.1062,-0.7720,0.5507
771527,0.1003,-0.7744,0.5461
771568,0.0795,-0.7863,0.5342
771590,0.0448,-0.8085,0.5179
771615,0.0221,-0.8236,0.5081
771637,-0.0333,-0.8605,0.4846
771659,-0.0649,-0.8816,0.4711
771676,-0.0985,-0.9034,0.4565
771695,-0.1332,-0.9255,0.4412
771717,-0.1681,-0.9471,0.4250
771775,-0.2904,-1.0186,0.3572
771798,-0.3126,-1.0304,0.3400
771815,-0.3301,-1.0393,0.3228
771837,-0.3503,-1.0477,0.2888
771870,-0.3516,-1.0439,0.2555
771889,-0.3459,-1.0380,0.2391
771912,-0.3369,-1.0297,0.2233
771934,-0.3108,-1.0078,0.1937
771962,-0.2949,-0.9951,0.1805
771985,-0.2603,-0.9681,0.1589
772013,-0.2424,-0.9545,0.1508
772035,-0.2079,-0.9286,0.1404
772058,-0.1917,-0.9167,0.1384
772075,-0.1766,-0.9058,0.1384
772092,-0.1627,-0.8960,0.1406
772113,-0.1501,-0.8873,0.1448
772155,-0.1201,-0.8693,0.1692
772179,-0.1061,-0.8647,0.1940
772204,-0.1002,-0.8646,0.2087
772227,-0.0948,-0.8657,0.2250
772249,-0.0841,-0.8706,0.2609
772266,-0.0785,-0.8741,0.2800
772289,-0.0724,-0.8783,0.2996
772306,-0.0658,-0.8827,0.3191
772348,-0.0425,-0.8979,0.3748
772371,-0.0333,-0.9033,0.3917
772395,-0.0129,-0.9138,0.4218
772412,-0.0021,-0.9186,0.4347
772432,0.0092,-0.9230,0.4460
772453,0.0204,-0.9269,0.4556
772485,0.0425,-0.9324,0.4695
772503,0.0529,-0.9340,0.4739
772545,0.0793,-0.9344,0.4780
772568,0.0862,-0.9333,0.4768
772591,0.0920,-0.9318,0.4745
772622,0.1003,-0.9272,0.4670
772645,0.1042,-0.9218,0.4568
772665,0.1047,-0.9187,0.4510
772687,0.1041,-0.9155,0.4451
772705,0.1028,-0.9124,0.4390
772757,0.0911,-0.9008,0.4159
772788,0.0829,-0.8960,0.4064
772806,0.0785,-0.8939,0.4023
772828,0.0740,-0.8920,0.3988
772851,0.0693,-0.8904,0.3958
772868,0.0648,-0.8890,0.3932
772890,0.0559,-0.8870,0.3899
772907,0.0515,-0.8862,0.3890
772942,0.0430,-0.8853,0.3890
772965,0.0389,-0.8850,0.3898
772989,0.0309,-0.8849,0.3927
773012,0.0271,-0.8849,0.3949
773034,0.0234,-0.8849,0.3975
773051,0.0199,-0.8849,0.4004
773091,0.0106,-0.8846,0.4105
773138,0.0037,-0.8843,0.4214
773161,0.0020,-0.8842,0.4248
773178,0.0005,-0.8840,0.4281
773200,-0.0006,-0.8839,0.4312
773222,-0.0018,-0.8835,0.4363
773239,-0.0018,-0.8833,0.4384
773262,-0.0016,-0.8831,0.4401
773284,-0.0002,-0.8826,0.4423
773301,0.0010,-0.8823,0.4429
773318,0.0023,-0.8821,0.4430
773341,0.0038,-0.8820,0.4429
773383,0.0090,-0.8821,0.4399
773407,0.0107,-0.8824,0.4384
773430,0.0125,-0.8829,0.4364
773450,0.0157,-0.8843,0.4319
773470,0.0173,-0.8851,0.4294
773494,0.0187,-0.8861,0.4266
773518,0.0211,-0.8882,0.4203
773541,0.0221,-0.8890,0.4166
773576,0.0233,-0.8900,0.4082
773598,0.0239,-0.8900,0.3982
773623,0.0239,-0.8896,0.3925
773645,0.0236,-0.8882,0.3795
773667,0.0232,-0.8872,0.3723
773684,0.0228,-0.8861,0.3646
773710,0.0222,-0.8846,0.3481
773729,0.0222,-0.8845,0.3396
773780,0.0254,-0.8890,0.3154
773803,0.0278,-0.8927,0.3085
773820,0.0309,-0.8972,0.3021
773842,0.0347,-0.9027,0.2966
773864,0.0439,-0.9156,0.2876
773881,0.0492,-0.9227,0.2842
773904,0.0546,-0.9301,0.2815
773921,0.0603,-0.9371,0.2795
773957,0.0776,-0.9565,0.2787
773980,0.0835,-0.9618,0.2800
774011,0.0951,-0.9702,0.2848
774028,0.1008,-0.9733,0.2880
774051,0.1064,-0.9756,0.2917
774073,0.1174,-0.9775,0.3002
774090,0.1227,-0.9773,0.3047
774112,0.1277,-0.9762,0.3093
774135,0.1324,-0.9742,0.3142
774162,0.1414,-0.9681,0.3241
774185,0.1455,-0.9640,0.3292
774211,0.1531,-0.9540,0.3398
774234,0.1565,-0.9485,0.3455
774256,0.1627,-0.9364,0.3572
774273,0.1655,-0.9302,0.3633
774296,0.1680,-0.9238,0.3696
774321,0.1720,-0.9108,0.3829
774366,0.1746,-0.8971,0.3967
774389,0.1754,-0.8827,0.4108
774406,0.1752,-0.8751,0.4178
774427,0.1746,-0.8669,0.4253
774447,0.1736,-0.8585,0.4330
774469,0.1708,-0.8407,0.4502
774490,0.1691,-0.8319,0.4602
774513,0.1674,-0.8237,0.4713
774557,0.1613,-0.8075,0.5107
774580,0.1581,-0.8068,0.5244
774604,0.1476,-0.8153,0.5483
774638,0.1290,-0.8387,0.5620
774661,0.1162,-0.8560,0.5629
774680,0.1006,-0.8767,0.5587
774702,0.0614,-0.9270,0.5332
774725,0.0381,-0.9557,0.5112
774745,0.0126,-0.9856,0.4834
774767,-0.0428,-1.0469,0.4117
774790,-0.0718,-1.0768,0.3693
774833,-0.1555,-1.1549,0.2273
774856,-0.1804,-1.1749,0.1791
774873,-0.2028,-1.1910,0.1322
774895,-0.2223,-1.2026,0.0880
774935,-0.2606,-1.2072,-0.0203
774966,-0.2688,-1.1841,-0.0664
774989,-0.2682,-1.1653,-0.0808
775006,-0.2648,-1.1426,-0.0894
775028,-0.2507,-1.0875,-0.0898
775050,-0.2408,-1.0569,-0.0824
775067,-0.2295,-1.0251,-0.0703
775090,-0.2173,-0.9930,-0.0543
775112,-0.1914,-0.9308,-0.0127
775129,-0.1786,-0.9017,0.0115
775152,-0.1664,-0.8749,0.0371
775174,-0.1550,-0.8503,0.0636
775209,-0.1284,-0.7939,0.1444
775240,-0.1222,-0.7811,0.1708
775261,-0.1133,-0.7644,0.2214
775284,-0.1104,-0.7604,0.2452
775306,-0.1080,-0.7593,0.2679
775323,-0.1063,-0.7610,0.2896
775347,-0.1028,-0.7721,0.3298
775370,-0.1003,-0.7810,0.3486
775405,-0.0923,-0.8035,0.3838
775426,-0.0792,-0.8302,0.4153
775448,-0.0709,-0.8442,0.4293
775469,-0.0613,-0.8584,0.4423
775490,-0.0389,-0.8861,0.4641
775514,-0.0265,-0.8992,0.4729
775580,0.0275,-0.9423,0.4928
775610,0.0541,-0.9562,0.4932
775633,0.0667,-0.9608,0.4910
775655,0.0895,-0.9658,0.4827
775678,0.0995,-0.9662,0.4767
775700,0.1083,-0.9652,0.4700
775717,0.1160,-0.9631,0.4626
775739,0.1273,-0.9559,0.4468
775762,0.1309,-0.9510,0.4388
775779,0.1329,-0.9457,0.4309
775797,0.1337,-0.9398,0.4232
775819,0.1309,-0.9275,0.4091
775850,0.1276,-0.9213,0.4027
775895,0.1113,-0.9039,0.3879
775920,0.0967,-0.8944,0.3817
775943,0.0887,-0.8904,0.3799
775965,0.0806,-0.8870,0.3787
775982,0.0723,-0.8840,0.3783
775999,0.0641,-0.8817,0.3785
776021,0.0483,-0.8785,0.3811
776064,0.0345,-0.8768,0.3885
776087,0.0234,-0.8762,0.3918
776112,0.0190,-0.8759,0.3953
776134,0.0132,-0.8751,0.4031
776157,0.0117,-0.8746,0.4073
776174,0.0112,-0.8739,0.4117
776196,0.0116,-0.8730,0.4165
776213,0.0129,-0.8721,0.4214
776255,0.0216,-0.8690,0.4373
776278,0.0258,-0.8680,0.4427
776304,0.0354,-0.8663,0.4539
776327,0.0406,-0.8657,0.4594
776349,0.0520,-0.8652,0.4696
776366,0.0579,-0.8652,0.4742
776389,0.0638,-0.8656,0.4786
776413,0.0758,-0.8669,0.4858
776449,0.0879,-0.8693,0.4908
776477,0.1001,-0.8724,0.4938
776498,0.1062,-0.8743,0.4944
776518,0.1124,-0.8762,0.4946
776538,0.1188,-0.8781,0.4945
776555,0.1251,-0.8799,0.4940
776575,0.1316,-0.8815,0.4933
776597,0.1445,-0.8838,0.4915
776614,0.1509,-0.8843,0.4904
776653,0.1633,-0.8835,0.4885
776676,0.1747,-0.8800,0.4872
776695,0.1797,-0.8772,0.4867
776718,0.1841,-0.8737,0.4866
776740,0.1907,-0.8649,0.4869
776775,0.1941,-0.8542,0.4882
776798,0.1945,-0.8483,0.4891
776825,0.1930,-0.8352,0.4915
776848,0.1913,-0.8284,0.4927
776870,0.1887,-0.8213,0.4941
776913,0.1780,-0.8002,0.5000
776935,0.1733,-0.7936,0.5033
776957,0.1626,-0.7820,0.5126
776977,0.1562,-0.7776,0.5187
777000,0.1493,-0.7743,0.5254
777017,0.1414,-0.7726,0.5325
777034,0.1322,-0.7727,0.5393
777056,0.1090,-0.7800,0.5485
777080,0.0942,-0.7883,0.5490
777108,0.0577,-0.8167,0.5382
777131,0.0361,-0.8372,0.5260
777154,-0.0122,-0.8907,0.4874
777174,-0.0380,-0.9230,0.4614
777197,-0.0642,-0.9580,0.4316
777221,-0.1163,-1.0328,0.3624
777238,-0.1412,-1.0702,0.3247
777261,-0.1647,-1.1058,0.2859
777303,-0.2218,-1.1901,0.1726
777326,-0.2356,-1.2072,0.1384
777352,-0.2550,-1.2213,0.0790
777385,-0.2638,-1.2080,0.0342
777408,-0.2645,-1.1917,0.0179
777425,-0.2632,-1.1696,0.0059
777447,-0.2600,-1.1427,-0.0021
777467,-0.2489,-1.0781,-0.0059
777502,-0.2336,-1.0059,0.0046
777525,-0.2252,-0.9694,0.0144
777549,-0.2083,-0.9003,0.0411
777572,-0.2002,-0.8691,0.0576
777594,-0.1926,-0.8412,0.0758
777611,-0.1857,-0.8168,0.0955
777635,-0.1735,-0.7794,0.1383
777658,-0.1680,-0.7667,0.1613
777708,-0.1521,-0.7499,0.2344
777731,-0.1396,-0.7535,0.2852
777748,-0.1322,-0.7590,0.3104
777771,-0.1237,-0.7665,0.3354
777793,-0.1143,-0.7756,0.3600
777810,-0.0919,-0.7980,0.4064
777832,-0.0793,-0.8104,0.4280
777851,-0.0658,-0.8234,0.4484
777901,-0.0228,-0.8616,0.5002
777924,-0.0084,-0.8733,0.5140
777941,0.0056,-0.8842,0.5259
777963,0.0316,-0.9030,0.5437
777996,0.0540,-0.9174,0.5541
778013,0.0634,-0.9227,0.5566
778036,0.0713,-0.9269,0.5574
778053,0.0780,-0.9297,0.5565
778088,0.0870,-0.9316,0.5503
778111,0.0905,-0.9290,0.5392
778136,0.0903,-0.9260,0.5323
778158,0.0865,-0.9180,0.5166
778178,0.0834,-0.9131,0.5082
778202,0.0793,-0.9078,0.4996
778224,0.0695,-0.8971,0.4827
778249,0.0638,-0.8918,0.4745
778284,0.0519,-0.8821,0.4592
778308,0.0400,-0.8739,0.4463
778333,0.0343,-0.8706,0.4406
778355,0.0236,-0.8655,0.4312
778378,0.0188,-0.8638,0.4274
778397,0.0144,-0.8627,0.4241
778414,0.0105,-0.8621,0.4214
778434,0.0070,-0.8622,0.4191
778477,-0.0005,-0.8656,0.4138
778498,-0.0021,-0.8676,0.4122
778522,-0.0038,-0.8726,0.4089
778545,-0.0042,-0.8754,0.4069
778567,-0.0042,-0.8781,0.4042
778584,-0.0033,-0.8834,0.3970
778618,-0.0017,-0.8883,0.3862
778640,-0.0006,-0.8907,0.3794
778670,0.0020,-0.8958,0.3628
778692,0.0034,-0.8987,0.3531
778736,0.0084,-0.9097,0.3201
778759,0.0103,-0.9143,0.3080
778783,0.0139,-0.9247,0.2830
778806,0.0157,-0.9303,0.2703
778828,0.0176,-0.9359,0.2576
778845,0.0192,-0.9417,0.2449
778863,0.0206,-0.9471,0.2324
778885,0.0232,-0.9570,0.2085
778916,0.0250,-0.9647,0.1863
778961,0.0264,-0.9692,0.1658
778986,0.0275,-0.9703,0.1476
779009,0.0281,-0.9696,0.1395
779031,0.0300,-0.9664,0.1254
779048,0.0316,-0.9644,0.1196
779065,0.0334,-0.9620,0.1147
779088,0.0359,-0.9597,0.1108
779130,0.0463,-0.9547,0.1061
779153,0.0507,-0.9542,0.1068
779177,0.0607,-0.9554,0.1121
779198,0.0659,-0.9573,0.1161
779226,0.0769,-0.9628,0.1265
779243,0.0824,-0.9664,0.1322
779267,0.0876,-0.9703,0.1381
779290,0.0929,-0.9747,0.1439
779325,0.1077,-0.9880,0.1600
779347,0.1124,-0.9922,0.1648
779372,0.1169,-0.9961,0.1692
779394,0.1257,-1.0024,0.1770
779416,0.1300,-1.0049,0.1807
779437,0.1342,-1.0066,0.1841
779459,0.1420,-1.0077,0.1912
779483,0.1456,-1.0070,0.1948
779529,0.1558,-0.9988,0.2068
779557,0.1622,-0.9888,0.2146
779574,0.1653,-0.9825,0.2181
779597,0.1685,-0.9758,0.2212
779619,0.1714,-0.9686,0.2236
779636,0.1741,-0.9612,0.2255
779658,0.1779,-0.9463,0.2257
779675,0.1786,-0.9393,0.2239
779710,0.1763,-0.9287,0.2152
779731,0.1729,-0.9257,0.2080
779755,0.1611,-0.9264,0.1881
779778,0.1527,-0.9305,0.1753
779800,0.1426,-0.9376,0.1604
779817,0.1306,-0.9474,0.1434
779859,0.0840,-0.9922,0.0803
779877,0.0651,-1.0109,0.0555
779922,0.0010,-1.0713,-0.0255
779945,-0.0217,-1.0907,-0.0531
779962,-0.0444,-1.1086,-0.0800
779984,-0.0876,-1.1378,-0.1290
780006,-0.1074,-1.1478,-0.1501
780023,-0.1255,-1.1542,-0.1685
780046,-0.1414,-1.1566,-0.1835
780068,-0.1666,-1.1486,-0.2032
780099,-0.1829,-1.1239,-0.2087
780121,-0.1879,-1.1062,-0.2064
780138,-0.1909,-1.0856,-0.2009
780162,-0.1923,-1.0627,-0.1926
780185,-0.1906,-1.0137,-0.1686
780204,-0.1880,-0.9890,-0.1534
780226,-0.1843,-0.9652,-0.1368
780247,-0.1750,-0.9222,-0.1002
780264,-0.1696,-0.9041,-0.0808
780281,-0.1639,-0.8883,-0.0613
780303,-0.1582,-0.8754,-0.0417
780346,-0.1417,-0.8535,0.0148
780368,-0.1367,-0.8517,0.0326
780395,-0.1272,-0.8550,0.0669
780417,-0.1226,-0.8594,0.0836
780438,-0.1178,-0.8651,0.1000
780468,-0.1078,-0.8795,0.1317
780485,-0.1025,-0.8876,0.1467
780506,-0.0969,-0.8959,0.1611
780533,-0.0847,-0.9126,0.1877
780556,-0.0780,-0.9208,0.2000
780582,-0.0638,-0.9362,0.2217
780605,-0.0565,-0.9432,0.2313
780627,-0.0416,-0.9558,0.2477
780644,-0.0345,-0.9612,0.2544
780667,-0.0277,-0.9657,0.2601
780684,-0.0215,-0.9695,0.2649
780702,-0.0159,-0.9725,0.2688
780731,-0.0065,-0.9763,0.2740
780752,-0.0028,-0.9771,0.2756
780775,0.0023,-0.9768,0.2771
780792,0.0038,-0.9758,0.2770
780815,0.0045,-0.9744,0.2765
780837,0.0045,-0.9725,0.2758
780854,0.0039,-0.9703,0.2747
780876,0.0012,-0.9652,0.2721
780902,-0.0009,-0.9624,0.2708
780946,-0.0089,-0.9542,0.2666
780969,-0.0118,-0.9518,0.2654
780986,-0.0148,-0.9496,0.2643
781008,-0.0204,-0.9460,0.2625
781031,-0.0228,-0.9449,0.2617
781048,-0.0253,-0.9441,0.2610
781083,-0.0292,-0.9434,0.2598
781129,-0.0330,-0.9447,0.2584
781152,-0.0337,-0.9454,0.2581
781176,-0.0347,-0.9475,0.2574
781199,-0.0348,-0.9486,0.2572
781221,-0.0350,-0.9507,0.2567
781238,-0.0350,-0.9517,0.2566
781259,-0.0349,-0.9525,0.2563
781280,-0.0349,-0.9532,0.2563
781304,-0.0348,-0.9541,0.2562
781321,-0.0348,-0.9542,0.2561
781344,-0.0348,-0.9541,0.2561
781402,-0.0352,-0.9520,0.2561
781429,-0.0353,-0.9512,0.2561
781450,-0.0355,-0.9493,0.2560
781473,-0.0356,-0.9482,0.2560
781492,-0.0356,-0.9473,0.2560
781509,-0.0356,-0.9463,0.2560
781526,-0.0356,-0.9454,0.2560
781548,-0.0352,-0.9437,0.2562
781583,-0.0344,-0.9423,0.2565
781606,-0.0338,-0.9415,0.2566
781632,-0.0325,-0.9402,0.2571
781655,-0.0317,-0.9395,0.2574
781689,-0.0300,-0.9377,0.2585
781707,-0.0291,-0.9369,0.2593
781724,-0.0282,-0.9358,0.2601
781746,-0.0266,-0.9333,0.2620
781781,-0.0256,-0.9299,0.2638
781801,-0.0254,-0.9277,0.2644
781826,-0.0254,-0.9252,0.2649
781848,-0.0259,-0.9188,0.2649
781871,-0.0266,-0.9149,0.2645
781888,-0.0275,-0.9106,0.2640
781910,-0.0302,-0.9006,0.2625
781928,-0.0321,-0.8950,0.2616
781987,-0.0408,-0.8773,0.2614
782011,-0.0483,-0.8667,0.2659
782028,-0.0526,-0.8624,0.2703
782051,-0.0568,-0.8591,0.2764
782073,-0.0610,-0.8571,0.2845
782090,-0.0649,-0.8563,0.2947
782112,-0.0720,-0.8593,0.3213
782129,-0.0747,-0.8629,0.3375
782164,-0.0782,-0.8745,0.3749
782187,-0.0791,-0.8820,0.3955
782211,-0.0789,-0.8986,0.4381
782234,-0.0780,-0.9071,0.4594
782256,-0.0754,-0.9226,0.4994
782273,-0.0740,-0.9290,0.5176
782293,-0.0724,-0.9338,0.5341
782321,-0.0701,-0.9386,0.5610
782358,-0.0695,-0.9365,0.5798
782381,-0.0699,-0.9330,0.5863
782405,-0.0732,-0.9226,0.5945
782422,-0.0758,-0.9164,0.5967
782441,-0.0791,-0.9100,0.5978
782462,-0.0828,-0.9039,0.5981
782484,-0.0868,-0.8984,0.5978
782506,-0.0953,-0.8907,0.5946
782529,-0.0995,-0.8889,0.5916
782558,-0.1064,-0.8905,0.5807
782581,-0.1088,-0.8942,0.5719
782621,-0.1077,-0.9164,0.5265
782644,-0.1041,-0.9274,0.5032
782668,-0.0911,-0.9535,0.4426
782700,-0.0701,-0.9839,0.3643
782722,-0.0569,-1.0000,0.3197
782747,-0.0420,-1.0165,0.2728
782769,-0.0090,-1.0487,0.1768
782812,0.0259,-1.0768,0.0852
782833,0.0593,-1.0973,0.0065
782858,0.0745,-1.1038,-0.0262
782880,0.0880,-1.1074,-0.0541
782902,0.1094,-1.1063,-0.0940
782930,0.1221,-1.0941,-0.1132
782950,0.1250,-1.0842,-0.1156
782973,0.1256,-1.0724,-0.1138
782995,0.1241,-1.0588,-0.1079
783038,0.1093,-1.0117,-0.0710
783061,0.1014,-0.9954,-0.0538
783078,0.0925,-0.9795,-0.0348
783100,0.0721,-0.9506,0.0072
783123,0.0608,-0.9381,0.0294
783140,0.0490,-0.9272,0.0522
783157,0.0366,-0.9181,0.0753
783179,0.0115,-0.9050,0.1215
783214,-0.0139,-0.8986,0.1660
783242,-0.0266,-0.8971,0.2069
783260,-0.0518,-0.8976,0.2255
783282,-0.0642,-0.8986,0.2426
783305,-0.0765,-0.8999,0.2582
783322,-0.0887,-0.9014,0.2725
783343,-0.1119,-0.9039,0.2969
783360,-0.1229,-0.9048,0.3070
783403,-0.1432,-0.9056,0.3235
783427,-0.1613,-0.9054,0.3347
783448,-0.1694,-0.9049,0.3384
783471,-0.1769,-0.9043,0.3409
783490,-0.1896,-0.9030,0.3428
783526,-0.1992,-0.9015,0.3413
783558,-0.2056,-0.9001,0.3375
783575,-0.2075,-0.8995,0.3350
783618,-0.2089,-0.8987,0.3295
783641,-0.2072,-0.8984,0.3236
783666,-0.2052,-0.8987,0.3207
783688,-0.1995,-0.8998,0.3151
783710,-0.1958,-0.9006,0.3125
783727,-0.1919,-0.9016,0.3099
783750,-0.1875,-0.9028,0.3076
783774,-0.1782,-0.9055,0.3037
783812,-0.1686,-0.9086,0.3009
783850,-0.1591,-0.9119,0.2993
783867,-0.1545,-0.9136,0.2992
783889,-0.1459,-0.9169,0.2998
783912,-0.1418,-0.9186,0.3007
783929,-0.1381,-0.9200,0.3018
783951,-0.1309,-0.9226,0.3047
783976,-0.1274,-0.9235,0.3064
784021,-0.1173,-0.9236,0.3119
784044,-0.1139,-0.9229,0.3136
784061,-0.1105,-0.9216,0.3152
784083,-0.1036,-0.9181,0.3177
784105,-0.1002,-0.9159,0.3184
784122,-0.0970,-0.9135,0.3187
784155,-0.0917,-0.9081,0.3177
784201,-0.0870,-0.8989,0.3123
784224,-0.0869,-0.8955,0.3096
784241,-0.0875,-0.8921,0.3065
784263,-0.0890,-0.8884,0.3033
784285,-0.0944,-0.8810,0.2971
784302,-0.0984,-0.8772,0.2946
784325,-0.1031,-0.8737,0.2925
784346,-0.1085,-0.8704,0.2913
784368,-0.1206,-0.8651,0.2927
784385,-0.1268,-0.8635,0.2958
784408,-0.1331,-0.8628,0.3008
784451,-0.1484,-0.8673,0.3270
784475,-0.1521,-0.8710,0.3394
784499,-0.1562,-0.8811,0.3687
784519,-0.1569,-0.8872,0.3848
784538,-0.1565,-0.8936,0.4014
784561,-0.1533,-0.9058,0.4346
784581,-0.1508,-0.9110,0.4501
784598,-0.1476,-0.9153,0.4645
784650,-0.1375,-0.9192,0.4979
784673,-0.1342,-0.9169,0.5051
784690,-0.1313,-0.9124,0.5103
784715,-0.1271,-0.8972,0.5145
784738,-0.1259,-0.8867,0.5140
784758,-0.1259,-0.8608,0.5085
784784,-0.1271,-0.8462,0.5043
784801,-0.1292,-0.8312,0.4996
784836,-0.1356,-0.8019,0.4906
784859,-0.1448,-0.7780,0.4849
784881,-0.1499,-0.7695,0.4839
784904,-0.1553,-0.7642,0.4845
784926,-0.1663,-0.7645,0.4899
784943,-0.1715,-0.7706,0.4940
784966,-0.1763,-0.7809,0.4989
784988,-0.1836,-0.8129,0.5079
785043,-0.1855,-0.8842,0.5096
785066,-0.1832,-0.9124,0.5040
785091,-0.1736,-0.9727,0.4803
785114,-0.1663,-1.0038,0.4618
785138,-0.1462,-1.0654,0.4121
785161,-0.1335,-1.0947,0.3818
785183,-0.1193,-1.1222,0.3489
785221,-0.0690,-1.1868,0.2404
785244,-0.0509,-1.2004,0.2036
785261,-0.0328,-1.2094,0.1676
785283,-0.0153,-1.2133,0.1332
785305,0.0175,-1.2058,0.0713
785322,0.0320,-1.1947,0.0446
785345,0.0449,-1.1791,0.0210
785366,0.0562,-1.1594,0.0009
785398,0.0724,-1.1104,-0.0297
785428,0.0802,-1.0527,-0.0470
785449,0.0811,-1.0226,-0.0509
785471,0.0776,-0.9631,-0.0496
785492,0.0739,-0.9352,-0.0443
785513,0.0690,-0.9093,-0.0360
785537,0.0573,-0.8655,-0.0105
785560,0.0509,-0.8483,0.0062
785582,0.0385,-0.8240,0.0465
785599,0.0326,-0.8169,0.0692
785616,0.0271,-0.8129,0.0929
785639,0.0222,-0.8120,0.1171
785681,0.0104,-0.8246,0.1882
785705,0.0074,-0.8331,0.2101
785730,0.0029,-0.8545,0.2488
785753,0.0011,-0.8668,0.2654
785775,-0.0006,-0.8796,0.2798
785792,-0.0024,-0.8926,0.2920
785816,-0.0065,-0.9183,0.3102
785839,-0.0090,-0.9304,0.3163
785877,-0.0192,-0.9623,0.3246
785897,-0.0234,-0.9709,0.3247
785922,-0.0282,-0.9786,0.3236
785944,-0.0388,-0.9908,0.3188
785967,-0.0447,-0.9952,0.3154
786037,-0.0684,-1.0015,0.2979
786084,-0.0836,-0.9952,0.2832
786109,-0.0914,-0.9872,0.2738
786132,-0.0946,-0.9823,0.2693
786154,-0.0970,-0.9769,0.2650
786171,-0.0990,-0.9714,0.2610
786193,-0.1013,-0.9602,0.2539
786216,-0.1017,-0.9547,0.2510
786233,-0.1016,-0.9496,0.2483
786250,-0.1011,-0.9447,0.2461
786272,-0.0990,-0.9364,0.2427
786330,-0.0942,-0.9279,0.2397
786353,-0.0923,-0.9261,0.2393
786370,-0.0905,-0.9250,0.2389
786392,-0.0867,-0.9242,0.2389
786415,-0.0850,-0.9246,0.2391
786437,-0.0818,-0.9260,0.2399
786461,-0.0802,-0.9272,0.2404
786481,-0.0789,-0.9285,0.2408
786508,-0.0762,-0.9310,0.2421
786528,-0.0748,-0.9321,0.2427
786552,-0.0735,-0.9330,0.2432
786572,-0.0709,-0.9338,0.2439
786595,-0.0697,-0.9337,0.2440
786620,-0.0674,-0.9326,0.2435
786637,-0.0664,-0.9316,0.2429
786654,-0.0656,-0.9302,0.2421
786677,-0.0649,-0.9285,0.2410
786712,-0.0643,-0.9240,0.2384
786730,-0.0643,-0.9210,0.2368
786757,-0.0654,-0.9138,0.2335
786778,-0.0665,-0.9095,0.2318
786797,-0.0681,-0.9048,0.2302
786819,-0.0728,-0.8947,0.2277
786842,-0.0758,-0.8895,0.2271
786859,-0.0795,-0.8848,0.2272
786901,-0.0928,-0.8741,0.2341
786925,-0.0977,-0.8726,0.2395
786953,-0.1067,-0.8735,0.2556
786976,-0.1106,-0.8761,0.2664
786998,-0.1163,-0.8855,0.2932
787015,-0.1178,-0.8920,0.3088
787038,-0.1184,-0.8993,0.3257
787063,-0.1167,-0.9149,0.3617
787114,-0.1084,-0.9343,0.4154
787137,-0.1045,-0.9382,0.4319
787154,-0.1003,-0.9403,0.4469
787176,-0.0961,-0.9404,0.4603
787198,-0.0873,-0.9343,0.4824
787233,-0.0789,-0.9200,0.4983
787256,-0.0750,-0.9102,0.5043
787293,-0.0649,-0.8716,0.5168
787315,-0.0626,-0.8566,0.5201
787340,-0.0609,-0.8408,0.5231
787362,-0.0603,-0.8094,0.5284
787385,-0.0615,-0.7948,0.5311
787402,-0.0640,-0.7816,0.5339
787423,-0.0676,-0.7708,0.5370
787443,-0.0784,-0.7582,0.5439
787464,-0.0851,-0.7576,0.5480
787482,-0.0927,-0.7614,0.5522
787501,-0.1007,-0.7697,0.5568
787539,-0.1246,-0.8214,0.5691
787567,-0.1315,-0.8466,0.5715
787590,-0.1406,-0.9053,0.5708
787614,-0.1423,-0.9373,0.5660
787637,-0.1420,-0.9697,0.5575
787659,-0.1350,-1.0332,0.5258
787696,-0.1210,-1.0909,0.4714
787719,-0.1117,-1.1165,0.4355
787743,-0.0891,-1.1587,0.3496
787766,-0.0757,-1.1749,0.3011
787788,-0.0455,-1.1965,0.1985
787805,-0.0294,-1.2017,0.1464
787853,0.0193,-1.1937,-0.0018
787870,0.0342,-1.1835,-0.0455
787887,0.0481,-1.1696,-0.0851
787910,0.0604,-1.1522,-0.1201
787952,0.0872,-1.0837,-0.1945
787972,0.0924,-1.0573,-0.2086
787997,0.0956,-1.0299,-0.2177
788019,0.0969,-0.9755,-0.2209
788042,0.0953,-0.9496,-0.2158
788061,0.0924,-0.9254,-0.2067
788087,0.0836,-0.8838,-0.1779
788110,0.0781,-0.8669,-0.1588
788153,0.0603,-0.8339,-0.0890
788177,0.0543,-0.8286,-0.0629
788195,0.0487,-0.8260,-0.0360
788217,0.0385,-0.8284,0.0178
788240,0.0339,-0.8329,0.0441
788257,0.0298,-0.8392,0.0693
788279,0.0260,-0.8472,0.0934
788296,0.0225,-0.8564,0.1158
788331,0.0137,-0.8903,0.1735
788353,0.0112,-0.9025,0.1895
788378,0.0092,-0.9147,0.2040
788400,0.0054,-0.9386,0.2294
788424,0.0038,-0.9497,0.2406
788445,0.0023,-0.9601,0.2510
788482,-0.0018,-0.9847,0.2781
788519,-0.0049,-0.9950,0.2928
788542,-0.0066,-0.9982,0.2990
788566,-0.0103,-1.0010,0.3090
788589,-0.0122,-1.0007,0.3126
788631,-0.0177,-0.9951,0.3185
788654,-0.0194,-0.9919,0.3186
788676,-0.0226,-0.9840,0.3165
788693,-0.0242,-0.9795,0.3143
788721,-0.0255,-0.9747,0.3115
788747,-0.0282,-0.9651,0.3042
788767,-0.0294,-0.9603,0.3000
788791,-0.0316,-0.9513,0.2913
788813,-0.0327,-0.9471,0.2869
788830,-0.0337,-0.9434,0.2826
788853,-0.0347,-0.9399,0.2786
788875,-0.0361,-0.9343,0.2715
788892,-0.0367,-0.9320,0.2686
788909,-0.0374,-0.9302,0.2660
788932,-0.0377,-0.9287,0.2639
788974,-0.0382,-0.9263,0.2610
788997,-0.0381,-0.9259,0.2612
789019,-0.0377,-0.9258,0.2618
789041,-0.0363,-0.9254,0.2649
789064,-0.0350,-0.9249,0.2672
789101,-0.0319,-0.9231,0.2727
789120,-0.0299,-0.9215,0.2758
789181,-0.0209,-0.9095,0.2880
789206,-0.0166,-0.9012,0.2937
789229,-0.0146,-0.8970,0.2968
789251,-0.0132,-0.8927,0.2997
789268,-0.0120,-0.8885,0.3030
789290,-0.0107,-0.8813,0.3103
789315,-0.0109,-0.8783,0.3148
789350,-0.0121,-0.8728,0.3326
789373,-0.0145,-0.8723,0.3405
789397,-0.0159,-0.8724,0.3492
789415,-0.0171,-0.8733,0.3591
789436,-0.0192,-0.8767,0.3822
789456,-0.0198,-0.8789,0.3951
789479,-0.0201,-0.8811,0.4088
789498,-0.0204,-0.8832,0.4229
789519,-0.0204,-0.8857,0.4512
789554,-0.0206,-0.8853,0.4778
789574,-0.0211,-0.8837,0.4900
789594,-0.0221,-0.8812,0.5011
789611,-0.0237,-0.8782,0.5112
789633,-0.0283,-0.8708,0.5282
789656,-0.0315,-0.8672,0.5353
789673,-0.0354,-0.8638,0.5416
789709,-0.0446,-0.8593,0.5524
789756,-0.0602,-0.8611,0.5662
789776,-0.0652,-0.8646,0.5702
789797,-0.0739,-0.8760,0.5763
789820,-0.0771,-0.8837,0.5775
789842,-0.0796,-0.8925,0.5767
789859,-0.0812,-0.9025,0.5734
789881,-0.0818,-0.9252,0.5560
789904,-0.0813,-0.9380,0.5410
789921,-0.0803,-0.9519,0.5215
789938,-0.0787,-0.9668,0.4976
789960,-0.0731,-0.9989,0.4395
790002,-0.0625,-1.0321,0.3728
790026,-0.0469,-1.0634,0.3018
790050,-0.0375,-1.0776,0.2655
790073,-0.0275,-1.0905,0.2292
790094,-0.0061,-1.1104,0.1587
790117,0.0048,-1.1169,0.1252
790136,0.0153,-1.1207,0.0938
790158,0.0348,-1.1194,0.0378
790220,0.0576,-1.0964,-0.0222
790245,0.0675,-1.0702,-0.0433
790268,0.0707,-1.0552,-0.0479
790290,0.0732,-1.0229,-0.0450
790307,0.0726,-1.0067,-0.0381
790339,0.0676,-0.9755,-0.0146
790356,0.0632,-0.9612,0.0012
790391,0.0515,-0.9358,0.0391
790416,0.0443,-0.9250,0.0602
790437,0.0364,-0.9158,0.0822
790459,0.0189,-0.9011,0.1268
790480,0.0094,-0.8958,0.1487
790504,-0.0105,-0.8887,0.1901
790526,-0.0208,-0.8868,0.2091
790551,-0.0312,-0.8860,0.2269
790586,-0.0625,-0.8892,0.2729
790605,-0.0725,-0.8920,0.2859
790632,-0.0823,-0.8954,0.2976
790650,-0.0916,-0.8993,0.3083
790672,-0.1089,-0.9083,0.3263
790695,-0.1167,-0.9130,0.3337
790712,-0.1239,-0.9176,0.3401
790734,-0.1359,-0.9260,0.3502
790761,-0.1405,-0.9297,0.3540
790792,-0.1466,-0.9355,0.3586
790815,-0.1482,-0.9377,0.3595
790832,-0.1486,-0.9393,0.3595
790873,-0.1438,-0.9406,0.3547
790903,-0.1364,-0.9386,0.3486
790950,-0.1212,-0.9323,0.3372
790981,-0.1100,-0.9269,0.3292
791003,-0.1045,-0.9242,0.3253
791020,-0.0991,-0.9216,0.3214
791043,-0.0941,-0.9193,0.3176
791065,-0.0854,-0.9156,0.3104
791082,-0.0818,-0.9144,0.3071
791104,-0.0787,-0.9136,0.3042
791124,-0.0763,-0.9131,0.3015
791148,-0.0732,-0.9135,0.2970
791166,-0.0725,-0.9142,0.2952
791189,-0.0724,-0.9153,0.2936
791249,-0.0758,-0.9207,0.2893
791273,-0.0771,-0.9219,0.2886
791294,-0.0798,-0.9233,0.2874
791316,-0.0809,-0.9233,0.2869
791339,-0.0818,-0.9225,0.2864
791356,-0.0825,-0.9209,0.2859
791373,-0.0829,-0.9185,0.2855
791395,-0.0831,-0.9103,0.2852
791431,-0.0826,-0.8979,0.2854
791451,-0.0823,-0.8905,0.2861
791470,-0.0820,-0.8824,0.2874
791487,-0.0818,-0.8740,0.2894
791506,-0.0815,-0.8655,0.2922
791525,-0.0818,-0.8492,0.3013
791547,-0.0822,-0.8422,0.3076
791577,-0.0836,-0.8312,0.3250
791622,-0.0854,-0.8256,0.3486
791643,-0.0874,-0.8256,0.3784
791668,-0.0883,-0.8275,0.3953
791690,-0.0901,-0.8347,0.4319
791712,-0.0908,-0.8395,0.4510
791729,-0.0914,-0.8448,0.4705
791751,-0.0919,-0.8505,0.4899
791770,-0.0923,-0.8561,0.5087
791813,-0.0927,-0.8711,0.5593
791836,-0.0925,-0.8748,0.5734
791860,-0.0918,-0.8798,0.5962
791884,-0.0914,-0.8809,0.6049
791907,-0.0906,-0.8807,0.6168
791924,-0.0903,-0.8798,0.6204
791947,-0.0903,-0.8783,0.6226
791969,-0.0909,-0.8748,0.6240
791986,-0.0916,-0.8730,0.6238
792003,-0.0923,-0.8716,0.6230
792025,-0.0933,-0.8705,0.6219
792068,-0.0973,-0.8705,0.6152
792090,-0.0990,-0.8719,0.6111
792114,-0.1007,-0.8741,0.6053
792135,-0.1041,-0.8815,0.5878
792158,-0.1055,-0.8866,0.5751
792190,-0.1071,-0.8995,0.5399
792238,-0.1042,-0.9261,0.4607
792263,-0.1011,-0.9369,0.4283
792285,-0.0896,-0.9609,0.3591
792308,-0.0811,-0.9738,0.3241
792325,-0.0708,-0.9867,0.2899
792347,-0.0590,-0.9994,0.2571
792369,-0.0315,-1.0225,0.1979
792389,-0.0167,-1.0319,0.1720
792407,-0.0016,-1.0393,0.1489
792429,0.0134,-1.0446,0.1287
792469,0.0548,-1.0455,0.0863
792493,0.0667,-1.0408,0.0782
792516,0.0861,-1.0243,0.0712
792539,0.0935,-1.0132,0.0719
792561,0.0995,-1.0009,0.0754
792578,0.1072,-0.9736,0.0900
792600,0.1089,-0.9597,0.1007
792623,0.1095,-0.9463,0.1133
792659,0.1077,-0.9219,0.1597
792682,0.1027,-0.9026,0.1770
792707,0.0991,-0.8951,0.1947
792729,0.0901,-0.8850,0.2302
792752,0.0847,-0.8823,0.2477
792779,0.0721,-0.8811,0.2809
792807,0.0652,-0.8826,0.2964
792825,0.0502,-0.8888,0.3245
792856,0.0422,-0.8932,0.3367
792879,0.0260,-0.9036,0.3569
792896,0.0177,-0.9092,0.3647
792919,0.0094,-0.9147,0.3710
792941,-0.0072,-0.9248,0.3793
792958,-0.0154,-0.9291,0.3815
792981,-0.0236,-0.9326,0.3824
793003,-0.0315,-0.9355,0.3823
793041,-0.0551,-0.9402,0.3773
793077,-0.0699,-0.9403,0.3716
793116,-0.0839,-0.9384,0.3650
793136,-0.0905,-0.9369,0.3617
793153,-0.0966,-0.9351,0.3584
793175,-0.1074,-0.9309,0.3523
793198,-0.1121,-0.9286,0.3495
793215,-0.1162,-0.9260,0.3469
793233,-0.1198,-0.9235,0.3446
793255,-0.1254,-0.9182,0.3407
793315,-0.1300,-0.9105,0.3367
793340,-0.1311,-0.9062,0.3352
793363,-0.1312,-0.9044,0.3348
793385,-0.1309,-0.9015,0.3345
793422,-0.1302,-0.8993,0.3345
793439,-0.1299,-0.8986,0.3345
793459,-0.1295,-0.8978,0.3345
793489,-0.1290,-0.8964,0.3344
793510,-0.1289,-0.8955,0.3341
793532,-0.1289,-0.8942,0.3336
793552,-0.1292,-0.8905,0.3320
793573,-0.1293,-0.8879,0.3311
793596,-0.1294,-0.8849,0.3298
793618,-0.1298,-0.8776,0.3275
793641,-0.1300,-0.8734,0.3265
793677,-0.1304,-0.8650,0.3254
793700,-0.1310,-0.8574,0.3269
793724,-0.1313,-0.8545,0.3290
793742,-0.1316,-0.8522,0.3322
793764,-0.1321,-0.8500,0.3424
793783,-0.1321,-0.8501,0.3495
793806,-0.1318,-0.8510,0.3578
793828,-0.1313,-0.8524,0.3671
793845,-0.1306,-0.8544,0.3774
793881,-0.1265,-0.8615,0.4130
793904,-0.1244,-0.8638,0.4257
793928,-0.1198,-0.8676,0.4515
793950,-0.1171,-0.8690,0.4644
793973,-0.1144,-0.8699,0.4768
793990,-0.1118,-0.8704,0.4889
794030,-0.1050,-0.8688,0.5212
794047,-0.1035,-0.8672,0.5303
794076,-0.1024,-0.8622,0.5455
794098,-0.1029,-0.8588,0.5516
794123,-0.1042,-0.8549,0.5569
794145,-0.1093,-0.8456,0.5651
794167,-0.1129,-0.8403,0.5682
794191,-0.1173,-0.8348,0.5710
794213,-0.1281,-0.8236,0.5756
794236,-0.1343,-0.8181,0.5775
794283,-0.1545,-0.8053,0.5837
794308,-0.1681,-0.8019,0.5880
794332,-0.1743,-0.8025,0.5901
794355,-0.1801,-0.8048,0.5919
794372,-0.1851,-0.8090,0.5934
794394,-0.1915,-0.8232,0.5942
794418,-0.1921,-0.8333,0.5933
794440,-0.1868,-0.8584,0.5864
794464,-0.1805,-0.8730,0.5797
794484,-0.1719,-0.8888,0.5701
794522,-0.1322,-0.9410,0.5209
794545,-0.1149,-0.9595,0.4978
794569,-0.0957,-0.9781,0.4719
794591,-0.0538,-1.0140,0.4128
794614,-0.0321,-1.0306,0.3809
794645,0.0105,-1.0583,0.3142
794662,0.0302,-1.0686,0.2808
794703,0.0784,-1.0817,0.1860
794726,0.0897,-1.0800,0.1580
794750,0.0985,-1.0753,0.1326
794772,0.1084,-1.0585,0.0908
794790,0.1095,-1.0469,0.0752
794817,0.1055,-1.0187,0.0557
794839,0.1008,-1.0028,0.0520
794856,0.0950,-0.9866,0.0522
794907,0.0732,-0.9382,0.0759
794938,0.0587,-0.9100,0.1075
794955,0.0522,-0.8978,0.1270
794978,0.0466,-0.8872,0.1481
795000,0.0382,-0.8708,0.1938
795017,0.0358,-0.8654,0.2177
795040,0.0343,-0.8616,0.2415
795064,0.0347,-0.8588,0.2878
795093,0.0364,-0.8595,0.3099
795116,0.0420,-0.8643,0.3505
795141,0.0458,-0.8678,0.3685
795162,0.0500,-0.8721,0.3850
795183,0.0592,-0.8822,0.4126
795208,0.0637,-0.8878,0.4237
795252,0.0759,-0.9060,0.4474
795307,0.0829,-0.9241,0.4580
795332,0.0829,-0.9344,0.4592
795355,0.0814,-0.9387,0.4584
795377,0.0753,-0.9452,0.4540
795394,0.0708,-0.9473,0.4507
795431,0.0591,-0.9490,0.4426
795452,0.0522,-0.9486,0.4380
795478,0.0370,-0.9454,0.4280
795499,0.0289,-0.9427,0.4227
795519,0.0208,-0.9393,0.4175
795548,0.0043,-0.9308,0.4071
795572,-0.0038,-0.9259,0.4021
795592,-0.0188,-0.9155,0.3926
795615,-0.0256,-0.9104,0.3883
795637,-0.0320,-0.9054,0.3843
795654,-0.0377,-0.9006,0.3805
795674,-0.0474,-0.8923,0.3738
795691,-0.0514,-0.8889,0.3707
795736,-0.0577,-0.8837,0.3654
795759,-0.0623,-0.8806,0.3610
795776,-0.0638,-0.8801,0.3591
795797,-0.0649,-0.8801,0.3575
795816,-0.0658,-0.8807,0.3562
795838,-0.0668,-0.8835,0.3542
795878,-0.0669,-0.8878,0.3530
795896,-0.0669,-0.8904,0.3527
795925,-0.0667,-0.8956,0.3523
795948,-0.0665,-0.8982,0.3523
795972,-0.0664,-0.9025,0.3523
795995,-0.0665,-0.9041,0.3524
796017,-0.0667,-0.9053,0.3523
796034,-0.0668,-0.9060,0.3523
796056,-0.0676,-0.9059,0.3518
796079,-0.0681,-0.9053,0.3514
796118,-0.0707,-0.9012,0.3495
796140,-0.0719,-0.8994,0.3486
796180,-0.0747,-0.8960,0.3468
796202,-0.0780,-0.8932,0.3450
796227,-0.0798,-0.8921,0.3442
796249,-0.0835,-0.8910,0.3431
796271,-0.0852,-0.8907,0.3430
796288,-0.0868,-0.8909,0.3433
796307,-0.0883,-0.8911,0.3439
796329,-0.0896,-0.8915,0.3448
796390,-0.0929,-0.8939,0.3536
796416,-0.0933,-0.8956,0.3617
796435,-0.0931,-0.8967,0.3667
796456,-0.0928,-0.8977,0.3724
796477,-0.0922,-0.8986,0.3787
796502,-0.0908,-0.8994,0.3927
796525,-0.0901,-0.8992,0.4004
796569,-0.0884,-0.8945,0.4250
796592,-0.0883,-0.8914,0.4337
796616,-0.0886,-0.8823,0.4508
796639,-0.0894,-0.8763,0.4592
796661,-0.0924,-0.8608,0.4749
796680,-0.0947,-0.8514,0.4821
796704,-0.0975,-0.8408,0.4885
796726,-0.1010,-0.8292,0.4944
796763,-0.1149,-0.7915,0.5088
796787,-0.1205,-0.7797,0.5134
796805,-0.1266,-0.7694,0.5187
796826,-0.1394,-0.7563,0.5328
796848,-0.1460,-0.7550,0.5422
796871,-0.1526,-0.7576,0.5535
796888,-0.1591,-0.7643,0.5664
796905,-0.1654,-0.7753,0.5807
796927,-0.1774,-0.8090,0.6117
796964,-0.1873,-0.8549,0.6410
796987,-0.1910,-0.8804,0.6530
797011,-0.1953,-0.9321,0.6672
797034,-0.1952,-0.9567,0.6678
797056,-0.1897,-1.0001,0.6523
797091,-0.1769,-1.0331,0.6117
797108,-0.1678,-1.0452,0.5819
797131,-0.1571,-1.0543,0.5464
797160,-0.1307,-1.0637,0.4614
797183,-0.1155,-1.0642,0.4141
797205,-0.0820,-1.0574,0.3149
797227,-0.0646,-1.0505,0.2653
797250,-0.0472,-1.0416,0.2169
797267,-0.0303,-1.0308,0.1707
797289,0.0010,-1.0052,0.0874
797315,0.0148,-0.9912,0.0516
797369,0.0540,-0.9362,-0.0442
797393,0.0594,-0.9244,-0.0555
797411,0.0631,-0.9139,-0.0618
797432,0.0653,-0.9050,-0.0634
797453,0.0653,-0.8916,-0.0530
797476,0.0635,-0.8873,-0.0419
797497,0.0605,-0.8845,-0.0275
797521,0.0519,-0.8826,0.0095
797558,0.0399,-0.8844,0.0543
797581,0.0330,-0.8862,0.0785
797605,0.0173,-0.8911,0.1289
797628,0.0089,-0.8939,0.1545
797650,-0.0085,-0.8998,0.2057
797667,-0.0176,-0.9028,0.2306
797700,-0.0359,-0.9089,0.2777
797723,-0.0450,-0.9121,0.2997
797756,-0.0629,-0.9186,0.3394
797779,-0.0715,-0.9220,0.3571
797796,-0.0800,-0.9253,0.3729
797818,-0.0957,-0.9316,0.3998
797841,-0.1030,-0.9344,0.4106
797858,-0.1097,-0.9369,0.4198
797880,-0.1216,-0.9406,0.4332
797902,-0.1265,-0.9418,0.4375
797919,-0.1306,-0.9425,0.4403
797937,-0.1339,-0.9429,0.4418
797959,-0.1366,-0.9429,0.4418
798007,-0.1398,-0.9399,0.4348
798040,-0.1382,-0.9358,0.4260
798063,-0.1342,-0.9301,0.4153
798080,-0.1315,-0.9268,0.4095
798103,-0.1283,-0.9231,0.4038
798125,-0.1248,-0.9193,0.3982
798164,-0.1134,-0.9077,0.3828
798187,-0.1095,-0.9041,0.3785
798210,-0.1022,-0.8972,0.3712
798230,-0.0988,-0.8942,0.3684
798253,-0.0957,-0.8917,0.3660
798277,-0.0902,-0.8881,0.3628
798300,-0.0880,-0.8870,0.3618
798347,-0.0830,-0.8861,0.3611
798397,-0.0803,-0.8884,0.3618
798424,-0.0795,-0.8909,0.3624
798443,-0.0792,-0.8922,0.3625
798464,-0.0792,-0.8936,0.3628
798486,-0.0792,-0.8949,0.3628
798507,-0.0796,-0.8971,0.3627
798529,-0.0798,-0.8979,0.3624
798552,-0.0801,-0.8984,0.3619
798575,-0.0804,-0.8981,0.3604
798598,-0.0804,-0.8972,0.3591
798635,-0.0801,-0.8933,0.3555
798659,-0.0792,-0.8865,0.3500
798676,-0.0786,-0.8818,0.3464
798699,-0.0780,-0.8763,0.3425
798720,-0.0769,-0.8632,0.3346
798745,-0.0765,-0.8557,0.3312
798763,-0.0764,-0.8480,0.3285
798784,-0.0765,-0.8405,0.3271
798838,-0.0786,-0.8165,0.3436
798861,-0.0792,-0.8135,0.3544
798880,-0.0798,-0.8119,0.3677
798902,-0.0804,-0.8130,0.4015
798925,-0.0807,-0.8153,0.4211
798942,-0.0807,-0.8186,0.4421
798969,-0.0809,-0.8270,0.4855
798986,-0.0813,-0.8315,0.5071
799016,-0.0825,-0.8397,0.5477
799038,-0.0834,-0.8430,0.5660
799063,-0.0842,-0.8455,0.5826
799085,-0.0863,-0.8472,0.6101
799108,-0.0873,-0.8461,0.6206
799125,-0.0881,-0.8435,0.6288
799147,-0.0895,-0.8337,0.6387
799169,-0.0902,-0.8265,0.6406
799208,-0.0919,-0.8093,0.6407
799229,-0.0931,-0.8003,0.6400
799269,-0.0980,-0.7803,0.6454
799292,-0.0999,-0.7783,0.6522
799316,-0.1035,-0.7848,0.6754
799339,-0.1052,-0.7932,0.6913
799361,-0.1086,-0.8192,0.7280
799378,-0.1101,-0.8357,0.7467
799396,-0.1111,-0.8534,0.7640
799418,-0.1115,-0.8718,0.7784
799476,-0.1010,-0.9399,0.7820
799499,-0.0946,-0.9539,0.7648
799520,-0.0867,-0.9663,0.7396
799542,-0.0771,-0.9771,0.7069
799578,-0.0400,-0.9994,0.5695
799597,-0.0250,-1.0037,0.5142
799620,-0.0092,-1.0062,0.4561
799642,0.0244,-1.0072,0.3368
799672,0.0416,-1.0057,0.2778
799695,0.0748,-1.0001,0.1666
799712,0.0903,-0.9965,0.1162
799734,0.1045,-0.9924,0.0702
799756,0.1173,-0.9883,0.0294
799780,0.1376,-0.9802,-0.0348
799805,0.1448,-0.9764,-0.0574
799827,0.1534,-0.9691,-0.0830
799867,0.1544,-0.9623,-0.0835
799891,0.1484,-0.9557,-0.0623
799908,0.1431,-0.9525,-0.0448
799931,0.1365,-0.9493,-0.0238
799953,0.1285,-0.9464,0.0004
799970,0.1198,-0.9436,0.0267
799992,0.0994,-0.9385,0.0837
800009,0.0883,-0.9363,0.1132
800062,0.0526,-0.9314,0.1998
800085,0.0405,-0.9302,0.2271
800102,0.0167,-0.9286,0.2769
800124,0.0050,-0.9281,0.2990
800147,-0.0063,-0.9277,0.3190
800164,-0.0176,-0.9274,0.3367
800200,-0.0392,-0.9264,0.3762
800240,-0.0696,-0.9237,0.3916
800262,-0.0791,-0.9224,0.3962
800279,-0.0883,-0.9210,0.3993
800301,-0.1049,-0.9178,0.4008
800323,-0.1123,-0.9161,0.3997
800340,-0.1191,-0.9144,0.3975
800363,-0.1254,-0.9128,0.3943
800385,-0.1359,-0.9098,0.3860
800402,-0.1400,-0.9083,0.3812
800437,-0.1462,-0.9055,0.3711
800454,-0.1483,-0.9039,0.3662
800500,-0.1510,-0.8978,0.3523
800524,-0.1511,-0.8951,0.3480
800546,-0.1510,-0.8922,0.3440
800566,-0.1503,-0.8855,0.3368
800588,-0.1498,-0.8818,0.3336
800610,-0.1493,-0.8781,0.3311
800632,-0.1483,-0.8707,0.3278
800649,-0.1481,-0.8671,0.3273
800680,-0.1477,-0.8605,0.3290
800703,-0.1478,-0.8575,0.3313
800726,-0.1481,-0.8550,0.3345
800746,-0.1492,-0.8512,0.3438
800769,-0.1500,-0.8500,0.3497
800793,-0.1511,-0.8492,0.3567
800838,-0.1550,-0.8503,0.3821
800857,-0.1564,-0.8516,0.3922
800875,-0.1576,-0.8530,0.4031
800897,-0.1597,-0.8567,0.4266
800939,-0.1611,-0.8602,0.4518
800962,-0.1617,-0.8627,0.4771
800979,-0.1617,-0.8633,0.4890
801002,-0.1617,-0.8634,0.5005
801024,-0.1615,-0.8629,0.5112
801041,-0.1611,-0.8597,0.5298
801063,-0.1610,-0.8571,0.5375
801080,-0.1610,-0.8538,0.5439
801125,-0.1622,-0.8387,0.5565
801149,-0.1631,-0.8320,0.5585
801167,-0.1642,-0.8245,0.5593
801189,-0.1670,-0.8068,0.5585
801211,-0.1687,-0.7968,0.5569
801228,-0.1704,-0.7860,0.5548
801248,-0.1722,-0.7747,0.5522
801270,-0.1741,-0.7631,0.5496
801287,-0.1758,-0.7515,0.5471
801316,-0.1782,-0.7295,0.5442
801339,-0.1788,-0.7119,0.5459
801364,-0.1783,-0.7059,0.5494
801386,-0.1772,-0.7021,0.5549
801408,-0.1736,-0.7024,0.5731
801431,-0.1713,-0.7069,0.5856
801454,-0.1655,-0.7244,0.6161
801477,-0.1624,-0.7372,0.6331
801526,-0.1511,-0.7896,0.6816
801551,-0.1466,-0.8107,0.6937
801573,-0.1357,-0.8566,0.7052
801596,-0.1296,-0.8810,0.7025
801613,-0.1229,-0.9060,0.6932
801635,-0.1082,-0.9573,0.6538
801658,-0.1000,-0.9830,0.6241
801682,-0.0909,-1.0084,0.5889
801699,-0.0809,-1.0328,0.5491
801721,-0.0577,-1.0769,0.4603
801759,-0.0304,-1.1112,0.3678
801783,-0.0001,-1.1321,0.2802
801800,0.0156,-1.1365,0.2402
801823,0.0311,-1.1366,0.2040
801845,0.0463,-1.1326,0.1716
801862,0.0605,-1.1244,0.1436
801884,0.0854,-1.0970,0.1007
801901,0.0957,-1.0789,0.0859
801946,0.1161,-1.0135,0.0670
801969,0.1194,-0.9905,0.0680
801989,0.1212,-0.9678,0.0719
802012,0.1216,-0.9460,0.0785
802034,0.1183,-0.9067,0.0974
802051,0.1150,-0.8898,0.1094
802092,0.1058,-0.8622,0.1367
802110,0.1002,-0.8518,0.1520
802139,0.0879,-0.8381,0.1854
802162,0.0748,-0.8331,0.2222
802187,0.0681,-0.8334,0.2412
802209,0.0613,-0.8351,0.2603
802231,0.0476,-0.8424,0.2975
802248,0.0406,-0.8475,0.3149
802270,0.0338,-0.8535,0.3313
802291,0.0270,-0.8604,0.3462
802308,0.0204,-0.8678,0.3596
802337,0.0076,-0.8843,0.3812
802360,-0.0042,-0.9017,0.3951
802391,-0.0150,-0.9187,0.4011
802408,-0.0201,-0.9264,0.4011
802429,-0.0251,-0.9336,0.3993
802450,-0.0300,-0.9398,0.3958
802467,-0.0348,-0.9453,0.3909
802487,-0.0393,-0.9498,0.3848
802512,-0.0482,-0.9564,0.3700
802566,-0.0609,-0.9602,0.3459
802604,-0.0687,-0.9594,0.3253
802621,-0.0757,-0.9565,0.3199
802644,-0.0789,-0.9545,0.3153
802667,-0.0818,-0.9520,0.3114
802703,-0.0867,-0.9460,0.3042
802721,-0.0905,-0.9393,0.3030
802758,-0.0929,-0.9324,0.3024
802781,-0.0938,-0.9291,0.3030
802804,-0.0945,-0.9232,0.3053
802826,-0.0945,-0.9207,0.3071
802849,-0.0942,-0.9186,0.3092
802876,-0.0930,-0.9152,0.3145
802899,-0.0922,-0.9138,0.3174
802916,-0.0911,-0.9126,0.3206
802956,-0.0870,-0.9092,0.3315
802979,-0.0856,-0.9077,0.3354
803002,-0.0826,-0.9041,0.3441
803019,-0.0813,-0.9017,0.3486
803042,-0.0801,-0.8990,0.3535
803064,-0.0791,-0.8960,0.3588
803083,-0.0780,-0.8892,0.3700
803105,-0.0780,-0.8854,0.3760
803122,-0.0784,-0.8815,0.3823
803160,-0.0806,-0.8732,0.3956
803183,-0.0846,-0.8645,0.4094
803200,-0.0870,-0.8601,0.4166
803223,-0.0897,-0.8557,0.4240
803245,-0.0925,-0.8513,0.4316
803262,-0.0952,-0.8468,0.4393
803283,-0.1000,-0.8373,0.4554
803309,-0.1021,-0.8322,0.4636
803350,-0.1053,-0.8151,0.4886
803373,-0.1057,-0.8088,0.4971
803390,-0.1056,-0.8025,0.5055
803416,-0.1050,-0.7906,0.5225
803437,-0.1047,-0.7860,0.5311
803460,-0.1047,-0.7828,0.5402
803479,-0.1053,-0.7834,0.5596
803498,-0.1058,-0.7881,0.5703
803521,-0.1066,-0.7961,0.5817
803538,-0.1073,-0.8075,0.5936
803558,-0.1079,-0.8223,0.6057
803619,-0.1074,-0.9044,0.6486
803647,-0.1028,-0.9502,0.6580
803664,-0.0988,-0.9717,0.6573
803687,-0.0934,-0.9916,0.6521
803709,-0.0785,-1.0250,0.6259
803726,-0.0692,-1.0380,0.6042
803743,-0.0585,-1.0485,0.5769
803766,-0.0465,-1.0564,0.5443
803802,-0.0190,-1.0649,0.4657
803823,-0.0038,-1.0660,0.4214
803845,0.0297,-1.0623,0.3275
803868,0.0475,-1.0579,0.2799
803890,0.0840,-1.0449,0.1882
803907,0.1021,-1.0366,0.1455
803947,0.1359,-1.0175,0.0697
803965,0.1510,-1.0068,0.0375
803994,0.1758,-0.9844,-0.0138
804017,0.1852,-0.9729,-0.0323
804041,0.1970,-0.9508,-0.0549
804064,0.1996,-0.9407,-0.0588
804086,0.1997,-0.9313,-0.0581
804103,0.1978,-0.9230,-0.0530
804125,0.1877,-0.9100,-0.0308
804148,0.1802,-0.9055,-0.0145
804190,0.1505,-0.8999,0.0482
804213,0.1392,-0.9003,0.0721
804230,0.1274,-0.9015,0.0966
804253,0.1039,-0.9059,0.1453
804275,0.0922,-0.9087,0.1687
804292,0.0806,-0.9117,0.1909
804315,0.0692,-0.9149,0.2118
804335,0.0474,-0.9210,0.2477
804381,0.0269,-0.9260,0.2747
804404,0.0077,-0.9291,0.2914
804421,-0.0015,-0.9299,0.2960
804443,-0.0103,-0.9304,0.2985
804463,-0.0188,-0.9305,0.2990
804485,-0.0348,-0.9310,0.2959
804507,-0.0422,-0.9315,0.2933
804529,-0.0492,-0.9324,0.2906
804563,-0.0614,-0.9354,0.2861
804613,-0.0752,-0.9432,0.2854
804638,-0.0813,-0.9495,0.2902
804689,-0.0869,-0.9570,0.3036
804714,-0.0890,-0.9598,0.3149
804736,-0.0896,-0.9602,0.3207
804759,-0.0902,-0.9601,0.3260
804778,-0.0905,-0.9595,0.3309
804800,-0.0908,-0.9567,0.3384
804823,-0.0909,-0.9546,0.3408
804852,-0.0908,-0.9497,0.3424
804886,-0.0909,-0.9440,0.3402
804907,-0.0912,-0.9409,0.3378
804929,-0.0922,-0.9347,0.3309
804952,-0.0930,-0.9314,0.3267
804969,-0.0941,-0.9282,0.3219
804986,-0.0956,-0.9252,0.3170
805008,-0.0973,-0.9220,0.3119
805046,-0.1039,-0.9135,0.2979
805069,-0.1063,-0.9109,0.2943
805086,-0.1085,-0.9082,0.2915
805108,-0.1106,-0.9054,0.2899
805130,-0.1138,-0.8995,0.2906
805147,-0.1146,-0.8962,0.2932
805180,-0.1147,-0.8890,0.3030
805197,-0.1140,-0.8851,0.3102
805245,-0.1093,-0.8724,0.3395
805268,-0.1071,-0.8680,0.3512
805285,-0.1047,-0.8638,0.3635
805307,-0.1003,-0.8556,0.3887
805328,-0.0985,-0.8517,0.4011
805351,-0.0972,-0.8480,0.4132
805373,-0.0957,-0.8409,0.4352
805390,-0.0959,-0.8374,0.4448
805427,-0.0980,-0.8302,0.4612
805448,-0.0999,-0.8267,0.4679
805486,-0.1045,-0.8203,0.4796
805506,-0.1097,-0.8152,0.4901
805525,-0.1123,-0.8134,0.4956
805549,-0.1147,-0.8119,0.5015
805569,-0.1168,-0.8108,0.5078
805593,-0.1201,-0.8093,0.5228
805640,-0.1223,-0.8073,0.5507
805665,-0.1224,-0.8063,0.5610
805687,-0.1224,-0.8036,0.5825
805710,-0.1223,-0.8022,0.5934
805734,-0.1226,-0.8005,0.6146
805756,-0.1230,-0.8008,0.6246
805789,-0.1249,-0.8041,0.6431
805822,-0.1271,-0.8119,0.6581
805842,-0.1281,-0.8176,0.6632
805865,-0.1287,-0.8246,0.6660
805887,-0.1290,-0.8425,0.6624
805910,-0.1288,-0.8538,0.6544
805927,-0.1279,-0.8667,0.6418
805949,-0.1248,-0.8977,0.6019
805971,-0.1221,-0.9158,0.5748
805988,-0.1184,-0.9353,0.5437
806005,-0.1134,-0.9562,0.5093
806028,-0.1068,-0.9779,0.4727
806072,-0.0768,-1.0433,0.3585
806096,-0.0480,-1.0814,0.2877
806113,-0.0315,-1.0970,0.2560
806135,-0.0139,-1.1095,0.2272
806158,0.0042,-1.1185,0.2015
806175,0.0223,-1.1239,0.1792
806197,0.0569,-1.1222,0.1450
806214,0.0724,-1.1151,0.1329
806262,0.1075,-1.0698,0.1162
806284,0.1146,-1.0479,0.1168
806301,0.1196,-1.0232,0.1204
806324,0.1227,-0.9966,0.1270
806345,0.1244,-0.9404,0.1493
806368,0.1240,-0.9124,0.1648
806403,0.1235,-0.8594,0.2032
806421,0.1243,-0.8357,0.2257
806451,0.1290,-0.7960,0.2747
806471,0.1335,-0.7808,0.3002
806495,0.1471,-0.7604,0.3513
806516,0.1564,-0.7556,0.3759
806538,0.1671,-0.7544,0.3994
806562,0.1930,-0.7627,0.4419
806585,0.2079,-0.7714,0.4603
806607,0.2396,-0.7961,0.4908
806664,0.2869,-0.8438,0.5205
806705,0.3228,-0.8914,0.5327
806728,0.3304,-0.9049,0.5334
806753,0.3353,-0.9166,0.5328
806796,0.3334,-0.9375,0.5244
806821,0.3184,-0.9388,0.5150
806838,0.3074,-0.9359,0.5095
806860,0.2942,-0.9310,0.5038
806907,0.2452,-0.9070,0.4861
806930,0.2267,-0.8971,0.4803
806949,0.2076,-0.8871,0.4750
806971,0.1689,-0.8677,0.4653
807012,0.1309,-0.8511,0.4574
807032,0.1127,-0.8442,0.4540
807054,0.0780,-0.8339,0.4484
807077,0.0619,-0.8302,0.4459
807106,0.0321,-0.8257,0.4423
807129,0.0186,-0.8246,0.4408
807153,-0.0059,-0.8243,0.4391
807176,-0.0168,-0.8250,0.4388
807198,-0.0269,-0.8258,0.4392
807215,-0.0363,-0.8270,0.4403
807239,-0.0527,-0.8297,0.4445
807262,-0.0602,-0.8313,0.4479
807302,-0.0797,-0.8363,0.4633
807326,-0.0853,-0.8381,0.4701
807344,-0.0907,-0.8400,0.4779
807366,-0.1003,-0.8434,0.4954
807387,-0.1047,-0.8448,0.5048
807404,-0.1090,-0.8462,0.5143
807428,-0.1130,-0.8472,0.5238
807449,-0.1206,-0.8478,0.5419
807487,-0.1276,-0.8461,0.5574
807508,-0.1307,-0.8442,0.5637
807529,-0.1339,-0.8416,0.5688
807549,-0.1398,-0.8341,0.5753
807571,-0.1425,-0.8292,0.5765
807593,-0.1450,-0.8236,0.5762
807631,-0.1519,-0.8049,0.5669
807649,-0.1539,-0.7986,0.5613
807696,-0.1604,-0.7830,0.5398
807721,-0.1628,-0.7799,0.5320
807743,-0.1683,-0.7783,0.5172
807765,-0.1715,-0.7804,0.5111
807788,-0.1748,-0.7844,0.5059
807808,-0.1781,-0.7908,0.5020
807828,-0.1847,-0.8097,0.4968
807845,-0.1876,-0.8223,0.4949
807862,-0.1903,-0.8368,0.4927
807885,-0.1925,-0.8531,0.4896
807929,-0.1937,-0.9102,0.4692
807960,-0.1882,-0.9520,0.4425
807977,-0.1830,-0.9733,0.4248
808000,-0.1759,-0.9940,0.4048
808022,-0.1669,-1.0143,0.3828
808039,-0.1559,-1.0334,0.3593
808056,-0.1289,-1.0673,0.3099
808078,-0.1134,-1.0813,0.2848
808115,-0.0804,-1.1021,0.2351
808138,-0.0637,-1.1084,0.2113
808162,-0.0320,-1.1125,0.1672
808185,-0.0178,-1.1102,0.1475
808207,0.0052,-1.0972,0.1136
808224,0.0137,-1.0867,0.1001
808259,0.0236,-1.0591,0.0807
808276,0.0253,-1.0425,0.0751
808309,0.0225,-1.0055,0.0718
808332,0.0183,-0.9857,0.0739
808349,0.0128,-0.9657,0.0781
808371,-0.0013,-0.9264,0.0920
808393,-0.0094,-0.9078,0.1011
808416,-0.0178,-0.8904,0.1110
808435,-0.0264,-0.8744,0.1216
808456,-0.0431,-0.8479,0.1437
808501,-0.0652,-0.8236,0.1763
808523,-0.0714,-0.8199,0.1866
808564,-0.0819,-0.8193,0.2069
808587,-0.0902,-0.8269,0.2275
808612,-0.0938,-0.8333,0.2384
808634,-0.0999,-0.8501,0.2620
808657,-0.1025,-0.8601,0.2749
808713,-0.1112,-0.8922,0.3184
808738,-0.1180,-0.9125,0.3503
808761,-0.1219,-0.9214,0.3668
808783,-0.1307,-0.9360,0.3997
808800,-0.1354,-0.9414,0.4158
808823,-0.1403,-0.9454,0.4313
808845,-0.1451,-0.9480,0.4462
808872,-0.1543,-0.9486,0.4731
808905,-0.1622,-0.9430,0.4957
808922,-0.1654,-0.9379,0.5051
808949,-0.1705,-0.9238,0.5194
808972,-0.1724,-0.9152,0.5244
808994,-0.1738,-0.9054,0.5280
809011,-0.1755,-0.8842,0.5312
809033,-0.1759,-0.8729,0.5311
809056,-0.1761,-0.8615,0.5300
809073,-0.1763,-0.8501,0.5281
809090,-0.1763,-0.8389,0.5255
809112,-0.1764,-0.8175,0.5187
809157,-0.1769,-0.7981,0.5109
809181,-0.1777,-0.7812,0.5032
809198,-0.1783,-0.7740,0.4996
809221,-0.1791,-0.7675,0.4963
809243,-0.1807,-0.7570,0.4908
809260,-0.1815,-0.7532,0.4886
809285,-0.1824,-0.7505,0.4868
809307,-0.1832,-0.7490,0.4855
809345,-0.1843,-0.7548,0.4839
809368,-0.1837,-0.7606,0.4841
809388,-0.1823,-0.7688,0.4846
809410,-0.1765,-0.7922,0.4858
809432,-0.1718,-0.8074,0.4862
809453,-0.1655,-0.8245,0.4861
809486,-0.1490,-0.8636,0.4824
809532,-0.1144,-0.9315,0.4636
809555,-0.0850,-0.9794,0.4415
809572,-0.0684,-1.0029,0.4282
809594,-0.0509,-1.0254,0.4138
809617,-0.0326,-1.0463,0.3983
809634,-0.0139,-1.0649,0.3818
809656,0.0229,-1.0942,0.3467
809679,0.0403,-1.1040,0.3280
809696,0.0565,-1.1102,0.3090
809714,0.0713,-1.1129,0.2897
809736,0.0958,-1.1077,0.2513
809797,0.1178,-1.0767,0.1986
809821,0.1223,-1.0447,0.1705
809838,0.1217,-1.0266,0.1593
809861,0.1193,-1.0076,0.1504
809883,0.1152,-0.9882,0.1439
809900,0.1027,-0.9495,0.1381
809917,0.0944,-0.9309,0.1385
809936,0.0851,-0.9132,0.1411
809973,0.0642,-0.8818,0.1521
809996,0.0529,-0.8685,0.1600
810020,0.0289,-0.8477,0.1794
810043,0.0166,-0.8406,0.1907
810065,-0.0084,-0.8340,0.2152
810082,-0.0208,-0.8346,0.2284
810104,-0.0327,-0.8376,0.2422
810134,-0.0552,-0.8502,0.2704
810165,-0.0756,-0.8694,0.2979
810188,-0.0851,-0.8805,0.3105
810212,-0.0941,-0.8918,0.3223
810234,-0.1112,-0.9143,0.3417
810257,-0.1194,-0.9248,0.3491
810274,-0.1273,-0.9344,0.3550
810296,-0.1422,-0.9502,0.3624
810320,-0.1492,-0.9562,0.3639
810359,-0.1614,-0.9634,0.3633
810382,-0.1709,-0.9645,0.3578
810399,-0.1747,-0.9629,0.3533
810430,-0.1799,-0.9564,0.3412
810458,-0.1814,-0.9520,0.3339
810477,-0.1814,-0.9423,0.3181
810499,-0.1798,-0.9374,0.3102
810524,-0.1771,-0.9327,0.3025
810546,-0.1688,-0.9252,0.2883
810569,-0.1632,-0.9225,0.2820
810598,-0.1498,-0.9196,0.2714
810621,-0.1420,-0.9193,0.2671
810645,-0.1246,-0.9211,0.2611
810668,-0.1154,-0.9230,0.2592
810690,-0.1060,-0.9252,0.2581
810707,-0.0869,-0.9303,0.2576
810745,-0.0691,-0.9352,0.2593
810807,-0.0410,-0.9426,0.2666
810831,-0.0361,-0.9438,0.2688
810854,-0.0321,-0.9447,0.2711
810876,-0.0267,-0.9457,0.2756
810893,-0.0253,-0.9459,0.2777
810916,-0.0247,-0.9458,0.2795
810935,-0.0247,-0.9456,0.2812
810983,-0.0282,-0.9438,0.2854
811006,-0.0322,-0.9424,0.2871
811023,-0.0345,-0.9417,0.2877
811051,-0.0370,-0.9410,0.2881
811074,-0.0415,-0.9399,0.2882
811091,-0.0436,-0.9396,0.2881
811114,-0.0454,-0.9393,0.2877
811131,-0.0470,-0.9392,0.2872
811175,-0.0502,-0.9395,0.2854
811198,-0.0507,-0.9396,0.2849
811222,-0.0508,-0.9399,0.2841
811245,-0.0507,-0.9402,0.2838
811267,-0.0499,-0.9406,0.2838
811284,-0.0494,-0.9408,0.2842
811306,-0.0490,-0.9409,0.2847
811329,-0.0485,-0.9409,0.2853
811357,-0.0479,-0.9409,0.2871
811388,-0.0479,-0.9404,0.2894
811413,-0.0481,-0.9401,0.2908
811434,-0.0491,-0.9388,0.2937
811457,-0.0498,-0.9380,0.2952
811476,-0.0507,-0.9371,0.2968
811495,-0.0518,-0.9360,0.2983
811517,-0.0541,-0.9336,0.3015
811542,-0.0554,-0.9323,0.3031
811580,-0.0594,-0.9283,0.3075
811602,-0.0609,-0.9272,0.3087
811619,-0.0623,-0.9261,0.3099
811658,-0.0649,-0.9243,0.3119
811683,-0.0675,-0.9232,0.3135
811706,-0.0687,-0.9229,0.3141
811728,-0.0709,-0.9225,0.3151
811785,-0.0734,-0.9224,0.3158
811810,-0.0739,-0.9225,0.3158
811832,-0.0742,-0.9224,0.3153
811855,-0.0740,-0.9222,0.3148
811872,-0.0736,-0.9219,0.3140
811894,-0.0721,-0.9203,0.3114
811917,-0.0712,-0.9191,0.3097
811941,-0.0699,-0.9176,0.3076
811969,-0.0668,-0.9135,0.3024
812014,-0.0609,-0.9054,0.2930
812037,-0.0588,-0.9027,0.2898
812061,-0.0547,-0.8979,0.2841
812084,-0.0527,-0.8964,0.2821
812106,-0.0508,-0.8956,0.2809
812123,-0.0472,-0.8969,0.2819
812145,-0.0455,-0.8990,0.2843
812162,-0.0438,-0.9021,0.2880
812207,-0.0389,-0.9163,0.3066
812230,-0.0374,-0.9219,0.3148
812270,-0.0344,-0.9332,0.3328
812293,-0.0319,-0.9430,0.3512
812318,-0.0309,-0.9468,0.3599
812340,-0.0294,-0.9518,0.3756
812357,-0.0289,-0.9529,0.3824
812402,-0.0288,-0.9514,0.3989
812427,-0.0294,-0.9496,0.4034
812448,-0.0299,-0.9471,0.4076
812469,-0.0314,-0.9412,0.4154
812489,-0.0321,-0.9376,0.4192
812512,-0.0328,-0.9338,0.4231
812534,-0.0336,-0.9298,0.4269
812577,-0.0355,-0.9161,0.4384
812610,-0.0364,-0.9055,0.4462
812633,-0.0366,-0.8995,0.4501
812650,-0.0371,-0.8862,0.4581
812672,-0.0375,-0.8785,0.4620
812695,-0.0378,-0.8700,0.4657
812712,-0.0385,-0.8605,0.4692
812734,-0.0406,-0.8389,0.4756
812757,-0.0425,-0.8269,0.4783
812814,-0.0560,-0.7793,0.4891
812839,-0.0613,-0.7698,0.4929
812878,-0.0739,-0.7577,0.5033
812903,-0.0892,-0.7573,0.5175
812926,-0.0977,-0.7622,0.5256
812951,-0.1152,-0.7821,0.5431
812993,-0.1316,-0.8137,0.5596
813015,-0.1438,-0.8536,0.5708
813039,-0.1477,-0.8755,0.5728
813061,-0.1500,-0.8983,0.5710
813083,-0.1503,-0.9454,0.5540
813100,-0.1486,-0.9694,0.5376
813123,-0.1459,-0.9930,0.5160
813145,-0.1381,-1.0382,0.4586
813162,-0.1331,-1.0586,0.4241
813191,-0.1274,-1.0769,0.3870
813214,-0.1152,-1.1057,0.3081
813245,-0.1023,-1.1221,0.2294
813268,-0.0961,-1.1252,0.1921
813292,-0.0845,-1.1217,0.1252
813314,-0.0793,-1.1152,0.0967
813337,-0.0748,-1.1062,0.0719
813354,-0.0710,-1.0950,0.0511
813378,-0.0652,-1.0674,0.0227
813401,-0.0631,-1.0520,0.0151
813433,-0.0603,-1.0199,0.0139
813454,-0.0594,-1.0040,0.0197
813493,-0.0593,-0.9612,0.0582
813515,-0.0603,-0.9493,0.0765
813535,-0.0619,-0.9388,0.0968
813558,-0.0668,-0.9219,0.1415
813583,-0.0699,-0.9153,0.1649
813627,-0.0819,-0.9004,0.2352
813650,-0.0865,-0.8966,0.2576
813676,-0.0966,-0.8900,0.2993
813699,-0.1017,-0.8872,0.3186
813721,-0.1119,-0.8824,0.3538
813738,-0.1171,-0.8805,0.3696
813761,-0.1219,-0.8788,0.3843
813804,-0.1355,-0.8750,0.4219
813851,-0.1433,-0.8734,0.4492
813876,-0.1494,-0.8733,0.4561
813899,-0.1517,-0.8733,0.4617
813921,-0.1545,-0.8733,0.4698
813938,-0.1549,-0.8732,0.4722
813988,-0.1525,-0.8723,0.4733
814027,-0.1479,-0.8712,0.4695
814049,-0.1450,-0.8706,0.4666
814073,-0.1381,-0.8695,0.4587
814104,-0.1302,-0.8688,0.4490
814127,-0.1261,-0.8687,0.4435
814144,-0.1219,-0.8688,0.4379
814166,-0.1138,-0.8696,0.4259
814188,-0.1099,-0.8704,0.4199
814208,-0.1062,-0.8713,0.4138
814230,-0.1028,-0.8724,0.4078
814252,-0.0970,-0.8752,0.3962
814282,-0.0929,-0.8787,0.3856
814305,-0.0914,-0.8806,0.3810
814329,-0.0905,-0.8827,0.3766
814351,-0.0894,-0.8872,0.3695
814374,-0.0892,-0.8894,0.3669
814391,-0.0894,-0.8917,0.3649
814417,-0.0901,-0.8960,0.3628
814434,-0.0906,-0.8978,0.3627
814476,-0.0916,-0.9009,0.3639
814499,-0.0923,-0.9025,0.3666
814522,-0.0925,-0.9028,0.3683
814541,-0.0925,-0.9027,0.3702
814562,-0.0922,-0.9015,0.3743
814584,-0.0918,-0.9004,0.3763
814604,-0.0912,-0.8990,0.3782
814628,-0.0896,-0.8955,0.3815
814673,-0.0876,-0.8911,0.3834
814696,-0.0854,-0.8861,0.3837
814720,-0.0844,-0.8833,0.3832
814741,-0.0833,-0.8805,0.3823
814763,-0.0813,-0.8750,0.3799
814786,-0.0804,-0.8723,0.3784
814803,-0.0798,-0.8699,0.3770
814825,-0.0790,-0.8657,0.3743
814843,-0.0789,-0.8641,0.3732
814896,-0.0797,-0.8624,0.3706
814919,-0.0804,-0.8630,0.3700
814936,-0.0814,-0.8644,0.3696
814961,-0.0842,-0.8693,0.3693
814984,-0.0858,-0.8728,0.3696
815003,-0.0878,-0.8770,0.3702
815028,-0.0919,-0.8864,0.3732
815045,-0.0941,-0.8914,0.3754
815074,-0.0986,-0.9014,0.3816
815096,-0.1007,-0.9059,0.3857
815118,-0.1027,-0.9100,0.3904
815139,-0.1058,-0.9166,0.4017
815162,-0.1071,-0.9188,0.4083
815186,-0.1082,-0.9208,0.4226
815208,-0.1080,-0.9204,0.4302
815231,-0.1074,-0.9189,0.4380
815270,-0.1019,-0.9084,0.4611
815293,-0.0989,-0.9026,0.4681
815333,-0.0909,-0.8867,0.4855
815356,-0.0809,-0.8652,0.4897
815381,-0.0753,-0.8524,0.4929
815403,-0.0637,-0.8236,0.4972
815425,-0.0580,-0.8083,0.4987
815477,-0.0432,-0.7653,0.5052
815498,-0.0396,-0.7542,0.5100
815515,-0.0367,-0.7458,0.5167
815537,-0.0342,-0.7400,0.5376
815560,-0.0348,-0.7433,0.5520
815577,-0.0365,-0.7506,0.5688
815599,-0.0438,-0.7775,0.6093
815640,-0.0548,-0.8167,0.6558
815672,-0.0677,-0.8621,0.7025
815695,-0.0745,-0.8850,0.7235
815712,-0.0809,-0.9071,0.7415
815734,-0.0924,-0.9462,0.7640
815757,-0.0970,-0.9623,0.7671
815774,-0.1006,-0.9756,0.7638
815796,-0.1041,-0.9943,0.7378
815818,-0.1038,-0.9999,0.7155
815838,-0.1018,-1.0034,0.6873
815857,-0.0981,-1.0051,0.6541
815879,-0.0862,-1.0049,0.5756
815932,-0.0582,-1.0001,0.4409
815956,-0.0471,-0.9982,0.3955
815974,-0.0359,-0.9962,0.3513
815996,-0.0135,-0.9919,0.2708
816019,-0.0032,-0.9895,0.2357
816036,0.0063,-0.9867,0.2050
816060,0.0227,-0.9799,0.1582
816083,0.0293,-0.9756,0.1427
816112,0.0398,-0.9655,0.1271
816135,0.0436,-0.9594,0.1263
816157,0.0466,-0.9528,0.1299
816179,0.0503,-0.9379,0.1470
816202,0.0511,-0.9298,0.1595
816219,0.0515,-0.9214,0.1740
816264,0.0503,-0.8947,0.2220
816304,0.0469,-0.8759,0.2517
816327,0.0404,-0.8575,0.2745
816344,0.0358,-0.8491,0.2827
816367,0.0303,-0.8418,0.2889
816389,0.0162,-0.8318,0.2952
816406,0.0074,-0.8306,0.2955
816429,-0.0026,-0.8325,0.2944
816448,-0.0138,-0.8383,0.2922
816470,-0.0259,-0.8478,0.2894
816492,-0.0518,-0.8777,0.2836
816515,-0.0652,-0.8972,0.2810
816552,-0.1042,-0.9656,0.2765
816576,-0.1158,-0.9888,0.2764
816593,-0.1261,-1.0109,0.2770
816616,-0.1349,-1.0311,0.2786
816637,-0.1469,-1.0637,0.2842
816654,-0.1499,-1.0750,0.2881
816677,-0.1508,-1.0822,0.2925
816694,-0.1498,-1.0853,0.2974
816738,-0.1370,-1.0698,0.3132
816761,-0.1304,-1.0571,0.3186
816785,-0.1156,-1.0228,0.3291
816808,-0.1082,-1.0022,0.3340
816830,-0.1010,-0.9799,0.3387
816847,-0.0945,-0.9564,0.3431
816882,-0.0798,-0.8844,0.3546
816922,-0.0746,-0.8389,0.3617
816982,-0.0743,-0.7635,0.3773
817002,-0.0764,-0.7493,0.3824
817025,-0.0792,-0.7372,0.3885
817047,-0.0868,-0.7213,0.4052
817064,-0.0912,-0.7181,0.4163
817086,-0.0958,-0.7184,0.4296
817104,-0.1005,-0.7220,0.4451
817148,-0.1134,-0.7529,0.5037
817177,-0.1167,-0.7690,0.5260
817195,-0.1205,-0.8076,0.5712
817217,-0.1206,-0.8295,0.5925
817240,-0.1191,-0.8524,0.6119
817257,-0.1160,-0.8763,0.6284
817279,-0.1038,-0.9255,0.6497
817296,-0.0946,-0.9503,0.6531
817341,-0.0702,-0.9984,0.6433
817364,-0.0380,-1.0414,0.6115
817381,-0.0193,-1.0598,0.5879
817404,0.0007,-1.0757,0.5596
817426,0.0431,-1.0988,0.4910
817448,0.0646,-1.1056,0.4519
817486,0.1057,-1.1097,0.3682
817531,0.1564,-1.0928,0.2412
817551,0.1687,-1.0818,0.2015
817575,0.1851,-1.0542,0.1302
817594,0.1890,-1.0386,0.1000
817617,0.1903,-1.0222,0.0741
817641,0.1859,-0.9896,0.0361
817661,0.1805,-0.9741,0.0245
817683,0.1736,-0.9595,0.0178
817729,0.1460,-0.9222,0.0248
817752,0.1354,-0.9126,0.0350
817769,0.1248,-0.9044,0.0486
817792,0.1038,-0.8926,0.0841
817812,0.0940,-0.8889,0.1052
817833,0.0850,-0.8866,0.1279
817855,0.0691,-0.8857,0.1765
817878,0.0624,-0.8871,0.2014
817902,0.0564,-0.8894,0.2262
817920,0.0470,-0.8965,0.2740
817942,0.0435,-0.9010,0.2965
817996,0.0370,-0.9163,0.3553
818023,0.0350,-0.9261,0.3855
818046,0.0342,-0.9304,0.3972
818068,0.0322,-0.9373,0.4143
818105,0.0288,-0.9417,0.4227
818122,0.0262,-0.9429,0.4241
818167,0.0150,-0.9429,0.4188
818186,0.0099,-0.9418,0.4147
818211,0.0042,-0.9403,0.4098
818233,-0.0088,-0.9365,0.3986
818271,-0.0228,-0.9326,0.3865
818288,-0.0299,-0.9308,0.3806
818311,-0.0367,-0.9292,0.3750
818328,-0.0433,-0.9280,0.3696
818365,-0.0604,-0.9255,0.3563
818403,-0.0685,-0.9250,0.3495
818426,-0.0713,-0.9250,0.3467
818446,-0.0734,-0.9250,0.3442
818467,-0.0748,-0.9254,0.3406
818490,-0.0745,-0.9254,0.3391
818509,-0.0734,-0.9255,0.3380
818526,-0.0715,-0.9255,0.3372
818562,-0.0630,-0.9252,0.3353
818584,-0.0593,-0.9249,0.3348
818609,-0.0553,-0.9246,0.3345
818631,-0.0468,-0.9233,0.3334
818654,-0.0421,-0.9224,0.3326
818671,-0.0374,-0.9209,0.3319
818711,-0.0223,-0.9136,0.3290
818728,-0.0172,-0.9099,0.3280
818758,-0.0121,-0.9054,0.3271
818779,-0.0022,-0.8945,0.3262
818804,0.0023,-0.8881,0.3264
818826,0.0101,-0.8740,0.3289
818848,0.0131,-0.8667,0.3312
818865,0.0154,-0.8595,0.3347
818888,0.0170,-0.8525,0.3392
818910,0.0176,-0.8402,0.3521
818927,0.0168,-0.8350,0.3604
818945,0.0153,-0.8306,0.3700
818968,0.0132,-0.8271,0.3810
818993,0.0077,-0.8234,0.4064
819059,-0.0043,-0.8264,0.4656
819076,-0.0070,-0.8287,0.4805
819099,-0.0092,-0.8314,0.4948
819121,-0.0112,-0.8342,0.5083
819142,-0.0144,-0.8397,0.5320
819165,-0.0157,-0.8422,0.5421
819187,-0.0168,-0.8445,0.5510
819216,-0.0193,-0.8494,0.5657
819239,-0.0222,-0.8557,0.5769
819264,-0.0239,-0.8601,0.5817
819286,-0.0282,-0.8719,0.5901
819321,-0.0332,-0.8883,0.5972
819338,-0.0356,-0.8978,0.6001
819355,-0.0378,-0.9077,0.6024
819378,-0.0397,-0.9178,0.6039
819415,-0.0419,-0.9375,0.6023
819436,-0.0411,-0.9551,0.5912
819458,-0.0397,-0.9629,0.5807
819479,-0.0377,-0.9705,0.5663
819500,-0.0319,-0.9851,0.5250
819524,-0.0282,-0.9926,0.4988
819549,-0.0238,-1.0005,0.4696
819571,-0.0137,-1.0173,0.4052
819608,-0.0023,-1.0350,0.3383
819632,0.0089,-1.0520,0.2740
819649,0.0142,-1.0593,0.2445
819671,0.0192,-1.0656,0.2170
819694,0.0236,-1.0702,0.1921
819716,0.0303,-1.0742,0.1508
819739,0.0323,-1.0732,0.1345
819763,0.0336,-1.0701,0.1216
819800,0.0327,-1.0494,0.1029
819823,0.0312,-1.0394,0.1034
819847,0.0271,-1.0162,0.1139
819869,0.0244,-1.0034,0.1233
819892,0.0214,-0.9900,0.1350
819909,0.0179,-0.9764,0.1488
819936,0.0100,-0.9492,0.1812
819962,0.0009,-0.9237,0.2173
820009,-0.0095,-0.9012,0.2540
820034,-0.0209,-0.8827,0.2886
820057,-0.0269,-0.8750,0.3046
820079,-0.0396,-0.8630,0.3326
820096,-0.0463,-0.8588,0.3447
820119,-0.0533,-0.8555,0.3552
820141,-0.0607,-0.8533,0.3643
820161,-0.0765,-0.8522,0.3785
820178,-0.0847,-0.8531,0.3839
820201,-0.0929,-0.8552,0.3884
820260,-0.1230,-0.8711,0.3988
820285,-0.1294,-0.8761,0.3999
820307,-0.1401,-0.8860,0.4012
820329,-0.1442,-0.8905,0.4019
820346,-0.1475,-0.8945,0.4025
820382,-0.1511,-0.9006,0.4049
820400,-0.1515,-0.9025,0.4069
820429,-0.1498,-0.9034,0.4122
820450,-0.1478,-0.9025,0.4155
820471,-0.1453,-0.9004,0.4193
820492,-0.1387,-0.8933,0.4277
820512,-0.1349,-0.8884,0.4323
820544,-0.1266,-0.8756,0.4417
820562,-0.1223,-0.8680,0.4463
820582,-0.1180,-0.8595,0.4508
820599,-0.1136,-0.8501,0.4551
820645,-0.1011,-0.8185,0.4657
820668,-0.0972,-0.8074,0.4685
820685,-0.0935,-0.7963,0.4709
820707,-0.0873,-0.7756,0.4757
820727,-0.0848,-0.7667,0.4786
820750,-0.0830,-0.7593,0.4822
820772,-0.0814,-0.7506,0.4927
820793,-0.0818,-0.7500,0.4999
820830,-0.0844,-0.7578,0.5188
820855,-0.0886,-0.7776,0.5425
820872,-0.0911,-0.7916,0.5552
820895,-0.0934,-0.8081,0.5676
820917,-0.0967,-0.8469,0.5885
820934,-0.0973,-0.8685,0.5952
820956,-0.0970,-0.8911,0.5983
820979,-0.0956,-0.9143,0.5967
821006,-0.0894,-0.9623,0.5775
821025,-0.0845,-0.9865,0.5593
821047,-0.0784,-1.0106,0.5359
821094,-0.0522,-1.0787,0.4403
821119,-0.0289,-1.1165,0.3639
821163,0.0117,-1.1542,0.2465
821181,0.0258,-1.1604,0.2095
821203,0.0397,-1.1632,0.1747
821220,0.0532,-1.1621,0.1425
821266,0.0884,-1.1365,0.0659
821289,0.0978,-1.1208,0.0479
821306,0.1056,-1.1022,0.0338
821328,0.1166,-1.0574,0.0173
821350,0.1194,-1.0322,0.0146
821367,0.1206,-1.0059,0.0154
821390,0.1200,-0.9790,0.0192
821412,0.1139,-0.9257,0.0343
821451,0.1021,-0.8760,0.0576
821475,0.0945,-0.8538,0.0713
821498,0.0764,-0.8164,0.1010
821521,0.0660,-0.8024,0.1161
821543,0.0432,-0.7855,0.1462
821560,0.0311,-0.7834,0.1613
821583,0.0193,-0.7858,0.1765
821605,0.0079,-0.7921,0.1920
821622,-0.0027,-0.8025,0.2075
821639,-0.0127,-0.8162,0.2227
821661,-0.0308,-0.8514,0.2505
821706,-0.0552,-0.9136,0.2819
821728,-0.0629,-0.9340,0.2891
821752,-0.0703,-0.9535,0.2948
821779,-0.0845,-0.9879,0.3016
821802,-0.0909,-1.0021,0.3032
821819,-0.0969,-1.0140,0.3037
821836,-0.1024,-1.0236,0.3032
821858,-0.1112,-1.0348,0.3003
821903,-0.1168,-1.0356,0.2955
821949,-0.1184,-1.0190,0.2889
821967,-0.1171,-1.0095,0.2876
821990,-0.1116,-0.9860,0.2874
822013,-0.1075,-0.9724,0.2886
822030,-0.1029,-0.9579,0.2909
822048,-0.0978,-0.9429,0.2943
822079,-0.0862,-0.9120,0.3040
822126,-0.0681,-0.8657,0.3250
822151,-0.0625,-0.8511,0.3333
822173,-0.0531,-0.8237,0.3513
822196,-0.0496,-0.8114,0.3611
822213,-0.0468,-0.8004,0.3712
822235,-0.0446,-0.7831,0.3934
822258,-0.0452,-0.7775,0.4054
822296,-0.0500,-0.7737,0.4316
822319,-0.0590,-0.7814,0.4622
822336,-0.0640,-0.7898,0.4790
822359,-0.0688,-0.8011,0.4967
822386,-0.0771,-0.8315,0.5323
822403,-0.0800,-0.8501,0.5486
822425,-0.0815,-0.8702,0.5629
822447,-0.0814,-0.8916,0.5740
822490,-0.0713,-0.9597,0.5806
822510,-0.0643,-0.9828,0.5720
822532,-0.0448,-1.0275,0.5383
822552,-0.0323,-1.0483,0.5137
822574,-0.0184,-1.0679,0.4846
822598,0.0128,-1.1019,0.4161
822621,0.0294,-1.1158,0.3783
822643,0.0461,-1.1272,0.3395
822683,0.0941,-1.1438,0.2257
822707,0.1084,-1.1429,0.1912
822725,0.1215,-1.1387,0.1595
822747,0.1436,-1.1210,0.1063
822766,0.1522,-1.1079,0.0854
822788,0.1593,-1.0924,0.0688
822808,0.1647,-1.0750,0.0565
822830,0.1703,-1.0356,0.0446
822878,0.1654,-0.9716,0.0566
822901,0.1604,-0.9506,0.0675
822925,0.1536,-0.9305,0.0813
822947,0.1350,-0.8947,0.1155
822970,0.1235,-0.8794,0.1351
822987,0.1108,-0.8662,0.1561
823024,0.0670,-0.8398,0.2224
823044,0.0510,-0.8352,0.2444
823062,0.0348,-0.8325,0.2659
823085,0.0184,-0.8315,0.2865
823146,-0.0468,-0.8398,0.3584
823171,-0.0624,-0.8440,0.3738
823193,-0.0919,-0.8538,0.4016
823216,-0.1056,-0.8593,0.4143
823233,-0.1184,-0.8649,0.4264
823255,-0.1410,-0.8760,0.4484
823277,-0.1506,-0.8812,0.4583
823315,-0.1664,-0.8901,0.4761
823343,-0.1774,-0.8961,0.4912
823363,-0.1812,-0.8977,0.4978
823406,-0.1862,-0.8956,0.5143
823430,-0.1859,-0.8925,0.5187
823450,-0.1849,-0.8883,0.5226
823467,-0.1831,-0.8829,0.5260
823509,-0.1738,-0.8619,0.5337
823529,-0.1696,-0.8536,0.5354
823552,-0.1599,-0.8359,0.5376
823571,-0.1545,-0.8269,0.5381
823594,-0.1489,-0.8180,0.5382
823618,-0.1375,-0.8005,0.5371
823644,-0.1316,-0.7924,0.5361
823669,-0.1206,-0.7777,0.5339
823706,-0.1111,-0.7672,0.5330
823729,-0.1072,-0.7642,0.5336
823753,-0.1014,-0.7639,0.5377
823776,-0.0999,-0.7672,0.5413
823795,-0.0989,-0.7729,0.5455
823817,-0.0991,-0.7926,0.5540
823840,-0.0999,-0.8066,0.5569
823862,-0.1007,-0.8234,0.5581
823901,-0.1001,-0.8885,0.5425
823924,-0.0980,-0.9142,0.5289
823947,-0.0896,-0.9688,0.4875
823964,-0.0828,-0.9966,0.4604
823986,-0.0739,-1.0239,0.4298
824009,-0.0630,-1.0502,0.3965
824026,-0.0502,-1.0746,0.3610
824048,-0.0192,-1.1154,0.2870
824074,-0.0017,-1.1307,0.2500
824120,0.0532,-1.1521,0.1472
824145,0.0873,-1.1443,0.0917
824167,0.1022,-1.1340,0.0692
824190,0.1151,-1.1202,0.0507
824207,0.1260,-1.1031,0.0363
824229,0.1409,-1.0621,0.0205
824255,0.1448,-1.0396,0.0189
824273,0.1462,-1.0164,0.0214
824296,0.1429,-0.9709,0.0370
824319,0.1384,-0.9500,0.0497
824356,0.1251,-0.9130,0.0824
824379,0.1079,-0.8848,0.1217
824399,0.0984,-0.8743,0.1427
824424,0.0886,-0.8660,0.1641
824443,0.0690,-0.8561,0.2058
824467,0.0594,-0.8541,0.2258
824488,0.0503,-0.8541,0.2449
824510,0.0331,-0.8583,0.2793
824547,0.0182,-0.8666,0.3080
824571,0.0115,-0.8716,0.3199
824589,-0.0006,-0.8820,0.3386
824611,-0.0061,-0.8870,0.3455
824634,-0.0114,-0.8915,0.3505
824651,-0.0165,-0.8955,0.3540
824673,-0.0266,-0.9012,0.3571
824690,-0.0317,-0.9030,0.3568
824735,-0.0427,-0.9039,0.3542
824758,-0.0544,-0.9027,0.3510
824796,-0.0667,-0.9005,0.3494
824813,-0.0729,-0.8995,0.3499
824836,-0.0852,-0.8982,0.3541
824876,-0.0969,-0.8984,0.3632
824896,-0.1024,-0.8993,0.3693
824918,-0.1074,-0.9004,0.3765
824940,-0.1158,-0.9036,0.3932
824970,-0.1215,-0.9070,0.4121
824993,-0.1229,-0.9083,0.4218
825017,-0.1230,-0.9097,0.4409
825035,-0.1216,-0.9093,0.4500
825058,-0.1193,-0.9080,0.4583
825084,-0.1124,-0.9022,0.4729
825102,-0.1082,-0.8976,0.4790
825125,-0.1034,-0.8918,0.4844
825186,-0.0839,-0.8590,0.4973
825210,-0.0797,-0.8491,0.4987
825228,-0.0760,-0.8390,0.4994
825250,-0.0706,-0.8197,0.4998
825273,-0.0687,-0.8113,0.4998
825290,-0.0676,-0.8042,0.4996
825307,-0.0671,-0.7986,0.4998
825327,-0.0671,-0.7950,0.5000
825365,-0.0691,-0.7979,0.5023
825388,-0.0698,-0.8036,0.5032
825411,-0.0703,-0.8120,0.5037
825430,-0.0697,-0.8361,0.5016
825450,-0.0686,-0.8518,0.4977
825469,-0.0671,-0.8701,0.4913
825490,-0.0652,-0.8907,0.4821
825512,-0.0587,-0.9385,0.4559
825552,-0.0482,-0.9921,0.4218
825573,-0.0415,-1.0197,0.4026
825597,-0.0251,-1.0729,0.3608
825620,-0.0159,-1.0968,0.3384
825642,-0.0061,-1.1179,0.3153
825659,0.0040,-1.1355,0.2915
825681,0.0244,-1.1577,0.2437
825704,0.0341,-1.1616,0.2201
825721,0.0428,-1.1606,0.1975
825738,0.0504,-1.1545,0.1761
825757,0.0565,-1.1439,0.1565
825776,0.0630,-1.1104,0.1238
825814,0.0613,-1.0646,0.1017
825838,0.0574,-1.0391,0.0950
825856,0.0515,-1.0128,0.0912
825878,0.0350,-0.9613,0.0917
825901,0.0249,-0.9374,0.0957
825918,0.0139,-0.9155,0.1021
825935,0.0023,-0.8960,0.1104
825957,-0.0212,-0.8655,0.1323
825995,-0.0435,-0.8466,0.1600
826018,-0.0536,-0.8414,0.1753
826042,-0.0714,-0.8384,0.2076
826065,-0.0790,-0.8401,0.2242
826087,-0.0858,-0.8435,0.2408
826104,-0.0918,-0.8483,0.2573
826151,-0.1042,-0.8678,0.3047
826209,-0.1100,-0.8948,0.3580
826234,-0.1101,-0.9001,0.3689
826256,-0.1096,-0.9087,0.3876
826279,-0.1093,-0.9119,0.3955
826296,-0.1089,-0.9143,0.4027
826318,-0.1084,-0.9161,0.4092
826338,-0.1075,-0.9182,0.4207
826385,-0.1060,-0.9181,0.4368
826410,-0.1051,-0.9171,0.4423
826440,-0.1029,-0.9138,0.4539
826463,-0.1014,-0.9113,0.4597
826483,-0.0980,-0.9041,0.4716
826500,-0.0959,-0.8994,0.4772
826522,-0.0938,-0.8939,0.4824
826545,-0.0916,-0.8878,0.4873
826566,-0.0870,-0.8737,0.4954
826588,-0.0848,-0.8656,0.4984
826611,-0.0828,-0.8572,0.5007
826641,-0.0791,-0.8394,0.5033
826664,-0.0776,-0.8303,0.5035
826688,-0.0756,-0.8126,0.5024
826711,-0.0750,-0.8043,0.5013
826758,-0.0752,-0.7822,0.4972
826791,-0.0778,-0.7711,0.4952
826814,-0.0826,-0.7639,0.4960
826831,-0.0861,-0.7621,0.4980
826852,-0.0900,-0.7616,0.5013
826875,-0.0944,-0.7625,0.5062
826899,-0.1042,-0.7689,0.5204
826922,-0.1094,-0.7745,0.5292
826944,-0.1144,-0.7815,0.5388
826961,-0.1232,-0.7999,0.5582
826978,-0.1266,-0.8112,0.5669
827000,-0.1292,-0.8235,0.5737
827056,-0.1305,-0.8680,0.5778
827080,-0.1259,-0.9053,0.5625
827101,-0.1215,-0.9264,0.5497
827123,-0.1155,-0.9490,0.5339
827145,-0.0980,-0.9968,0.4958
827162,-0.0865,-1.0209,0.4745
827180,-0.0735,-1.0442,0.4519
827203,-0.0592,-1.0660,0.4283
827257,0.0044,-1.1255,0.3289
827281,0.0200,-1.1311,0.3041
827304,0.0349,-1.1328,0.2803
827326,0.0614,-1.1241,0.2372
827349,0.0728,-1.1143,0.2190
827390,0.0977,-1.0671,0.1809
827430,0.1063,-1.0259,0.1702
827451,0.1082,-1.0039,0.1691
827473,0.1073,-0.9591,0.1741
827493,0.1046,-0.9373,0.1799
827515,0.1006,-0.9163,0.1874
827539,0.0885,-0.8783,0.2067
827562,0.0804,-0.8619,0.2179
827584,0.0714,-0.8475,0.2299
827624,0.0388,-0.8165,0.2693
827647,0.0266,-0.8103,0.2834
827667,0.0140,-0.8059,0.2979
827690,-0.0122,-0.8024,0.3270
827713,-0.0258,-0.8030,0.3414
827730,-0.0393,-0.8048,0.3557
827752,-0.0664,-0.8118,0.3833
827774,-0.0798,-0.8168,0.3965
827791,-0.0929,-0.8225,0.4091
827808,-0.1058,-0.8287,0.4210
827831,-0.1183,-0.8356,0.4323
827875,-0.1528,-0.8571,0.4623
827897,-0.1630,-0.8640,0.4711
827921,-0.1805,-0.8765,0.4869
827944,-0.1877,-0.8816,0.4940
827966,-0.1989,-0.8892,0.5062
828004,-0.2054,-0.8925,0.5156
828057,-0.2076,-0.8883,0.5242
828075,-0.2068,-0.8846,0.5256
828097,-0.2035,-0.8748,0.5266
828119,-0.2014,-0.8685,0.5266
828136,-0.1991,-0.8618,0.5262
828159,-0.1967,-0.8547,0.5260
828181,-0.1923,-0.8401,0.5256
828198,-0.1903,-0.8326,0.5258
828216,-0.1887,-0.8254,0.5261
828239,-0.1873,-0.8185,0.5267
828300,-0.1832,-0.7941,0.5330
828331,-0.1818,-0.7843,0.5387
828348,-0.1809,-0.7799,0.5425
828371,-0.1801,-0.7758,0.5466
828392,-0.1790,-0.7719,0.5515
828409,-0.1779,-0.7682,0.5568
828431,-0.1752,-0.7614,0.5686
828453,-0.1737,-0.7583,0.5747
828483,-0.1703,-0.7527,0.5867
828503,-0.1686,-0.7505,0.5917
828524,-0.1669,-0.7490,0.5957
828546,-0.1636,-0.7498,0.5989
828566,-0.1619,-0.7527,0.5977
828590,-0.1600,-0.7577,0.5942
828612,-0.1553,-0.7754,0.5801
828646,-0.1486,-0.8046,0.5552
828677,-0.1393,-0.8450,0.5198
828700,-0.1334,-0.8689,0.4989
828720,-0.1265,-0.8945,0.4767
828742,-0.1090,-0.9491,0.4299
828762,-0.0985,-0.9764,0.4065
828785,-0.0870,-1.0028,0.3833
828806,-0.0616,-1.0497,0.3389
828823,-0.0481,-1.0690,0.3181
828861,-0.0204,-1.0970,0.2799
828884,-0.0066,-1.1053,0.2628
828906,0.0198,-1.1099,0.2332
828933,0.0319,-1.1063,0.2207
828956,0.0529,-1.0889,0.2010
828973,0.0615,-1.0759,0.1940
828996,0.0687,-1.0605,0.1887
829018,0.0746,-1.0435,0.1854
829068,0.0836,-0.9669,0.1896
829091,0.0829,-0.9481,0.1942
829111,0.0808,-0.9301,0.1998
829133,0.0778,-0.9132,0.2064
829155,0.0692,-0.8839,0.2213
829172,0.0641,-0.8719,0.2295
829195,0.0582,-0.8618,0.2378
829217,0.0452,-0.8478,0.2554
829251,0.0309,-0.8413,0.2747
829269,0.0233,-0.8405,0.2850
829331,-0.0007,-0.8455,0.3191
829356,-0.0183,-0.8533,0.3430
829379,-0.0275,-0.8583,0.3551
829400,-0.0463,-0.8698,0.3785
829422,-0.0558,-0.8759,0.3896
829443,-0.0654,-0.8822,0.3999
829467,-0.0852,-0.8944,0.4172
829510,-0.1049,-0.9052,0.4299
829538,-0.1234,-0.9138,0.4377
829555,-0.1321,-0.9171,0.4399
829578,-0.1400,-0.9199,0.4410
829600,-0.1537,-0.9232,0.4402
829638,-0.1638,-0.9237,0.4358
829656,-0.1674,-0.9230,0.4323
829674,-0.1699,-0.9218,0.4281
829696,-0.1719,-0.9180,0.4180
829733,-0.1700,-0.9131,0.4059
829756,-0.1677,-0.9103,0.3994
829780,-0.1610,-0.9048,0.3865
829803,-0.1567,-0.9022,0.3802
829825,-0.1521,-0.8997,0.3744
829856,-0.1418,-0.8955,0.3638
829879,-0.1312,-0.8923,0.3550
829901,-0.1260,-0.8912,0.3514
829922,-0.1208,-0.8905,0.3483
829952,-0.1116,-0.8900,0.3436
829975,-0.1035,-0.8906,0.3408
829992,-0.1001,-0.8914,0.3402
830014,-0.0972,-0.8921,0.3400
830037,-0.0946,-0.8929,0.3400
830054,-0.0925,-0.8939,0.3405
830076,-0.0898,-0.8954,0.3422
830093,-0.0891,-0.8958,0.3433
830138,-0.0887,-0.8951,0.3459
830162,-0.0895,-0.8920,0.3489
830179,-0.0903,-0.8893,0.3503
830202,-0.0913,-0.8859,0.3518
830224,-0.0940,-0.8765,0.3551
830241,-0.0957,-0.8710,0.3569
830264,-0.0975,-0.8650,0.3593
830289,-0.1022,-0.8529,0.3652
830343,-0.1100,-0.8376,0.3810
830368,-0.1125,-0.8342,0.3888
830390,-0.1169,-0.8306,0.4083
830413,-0.1185,-0.8304,0.4200
830435,-0.1198,-0.8312,0.4327
830464,-0.1206,-0.8346,0.4604
830512,-0.1179,-0.8416,0.5034
830532,-0.1160,-0.8433,0.5172
830555,-0.1106,-0.8444,0.5420
830576,-0.1073,-0.8431,0.5526
830598,-0.1038,-0.8405,0.5616
830622,-0.0961,-0.8307,0.5748
830645,-0.0922,-0.8234,0.5787
830667,-0.0848,-0.8047,0.5820
830684,-0.0817,-0.7937,0.5820
830701,-0.0787,-0.7821,0.5817
830724,-0.0764,-0.7704,0.5814
830768,-0.0735,-0.7396,0.5874
830792,-0.0743,-0.7327,0.5934
830809,-0.0762,-0.7280,0.6018
830829,-0.0792,-0.7260,0.6129
830851,-0.0885,-0.7306,0.6429
830876,-0.0946,-0.7372,0.6613
830900,-0.1089,-0.7584,0.7019
830923,-0.1165,-0.7725,0.7224
830970,-0.1367,-0.8240,0.7728
830993,-0.1416,-0.8429,0.7821
831010,-0.1451,-0.8621,0.7858
831032,-0.1477,-0.9003,0.7736
831055,-0.1469,-0.9187,0.7568
831082,-0.1400,-0.9534,0.7024
831109,-0.1339,-0.9692,0.6656
831152,-0.1041,-1.0078,0.5286
831175,-0.0907,-1.0172,0.4772
831192,-0.0759,-1.0245,0.4246
831214,-0.0441,-1.0330,0.3198
831237,-0.0276,-1.0341,0.2697
831254,-0.0112,-1.0332,0.2220
831276,0.0201,-1.0260,0.1381
831298,0.0347,-1.0200,0.1030
831315,0.0482,-1.0128,0.0734
831334,0.0607,-1.0045,0.0493
831356,0.0718,-0.9955,0.0310
831417,0.1024,-0.9557,0.0134
831445,0.1093,-0.9365,0.0336
831467,0.1108,-0.9275,0.0492
831486,0.1112,-0.9189,0.0679
831507,0.1090,-0.9033,0.1118
831525,0.1066,-0.8964,0.1362
831548,0.1034,-0.8900,0.1613
831570,0.0997,-0.8844,0.1868
831600,0.0903,-0.8755,0.2366
831623,0.0781,-0.8702,0.2822
831640,0.0708,-0.8690,0.3027
831663,0.0627,-0.8687,0.3215
831685,0.0540,-0.8690,0.3384
831702,0.0443,-0.8701,0.3531
831726,0.0226,-0.8744,0.3765
831753,-0.0021,-0.8817,0.3912
831784,-0.0154,-0.8865,0.3958
831807,-0.0425,-0.8983,0.3997
831824,-0.0560,-0.9052,0.3994
831847,-0.0695,-0.9122,0.3977
831869,-0.0952,-0.9265,0.3904
831886,-0.1073,-0.9331,0.3851
831908,-0.1187,-0.9390,0.3790
831932,-0.1293,-0.9438,0.3722
831969,-0.1549,-0.9525,0.3502
832010,-0.1663,-0.9532,0.3363
832028,-0.1702,-0.9523,0.3300
832052,-0.1747,-0.9484,0.3193
832075,-0.1754,-0.9454,0.3151
832092,-0.1752,-0.9421,0.3118
832114,-0.1742,-0.9382,0.3092
832138,-0.1699,-0.9294,0.3068
832169,-0.1632,-0.9196,0.3076
832192,-0.1592,-0.9146,0.3093
832209,-0.1547,-0.9093,0.3118
832231,-0.1450,-0.8990,0.3190
832253,-0.1400,-0.8939,0.3237
832270,-0.1349,-0.8889,0.3292
832293,-0.1298,-0.8840,0.3353
832315,-0.1200,-0.8744,0.3494
832332,-0.1156,-0.8698,0.3571
832361,-0.1113,-0.8650,0.3651
832384,-0.1042,-0.8557,0.3820
832431,-0.0973,-0.8419,0.4078
832450,-0.0959,-0.8373,0.4165
832473,-0.0952,-0.8328,0.4252
832494,-0.0950,-0.8282,0.4338
832514,-0.0961,-0.8193,0.4508
832531,-0.0973,-0.8151,0.4592
832553,-0.0990,-0.8109,0.4674
832575,-0.1011,-0.8069,0.4757
832604,-0.1063,-0.7996,0.4921
832627,-0.1125,-0.7933,0.5084
832658,-0.1158,-0.7908,0.5251
832676,-0.1229,-0.7867,0.5338
832698,-0.1266,-0.7854,0.5426
832721,-0.1301,-0.7848,0.5516
832738,-0.1338,-0.7849,0.5609
832755,-0.1372,-0.7860,0.5703
832777,-0.1439,-0.7910,0.5891
832815,-0.1498,-0.8008,0.6075
832835,-0.1522,-0.8076,0.6160
832857,-0.1562,-0.8248,0.6301
832879,-0.1575,-0.8352,0.6350
832902,-0.1582,-0.8468,0.6381
832919,-0.1581,-0.8594,0.6389
832941,-0.1547,-0.8872,0.6327
832967,-0.1511,-0.9023,0.6249
833008,-0.1335,-0.9508,0.5801
833031,-0.1254,-0.9673,0.5581
833051,-0.1161,-0.9836,0.5332
833073,-0.0942,-1.0144,0.4763
833098,-0.0819,-1.0282,0.4456
833119,-0.0687,-1.0403,0.4139
833141,-0.0410,-1.0585,0.3499
833164,-0.0269,-1.0640,0.3182
833204,0.0129,-1.0641,0.2292
833227,0.0245,-1.0590,0.2026
833267,0.0442,-1.0416,0.1562
833290,0.0585,-1.0172,0.1202
833307,0.0635,-1.0031,0.1068
833330,0.0670,-0.9883,0.0964
833352,0.0704,-0.9583,0.0852
833369,0.0703,-0.9436,0.0844
833387,0.0692,-0.9298,0.0864
833414,0.0671,-0.9169,0.0914
833473,0.0522,-0.8774,0.1339
833498,0.0471,-0.8711,0.1486
833518,0.0356,-0.8625,0.1810
833541,0.0294,-0.8601,0.1982
833575,0.0162,-0.8584,0.2341
833595,0.0094,-0.8588,0.2523
833617,-0.0048,-0.8611,0.2883
833640,-0.0121,-0.8625,0.3058
833670,-0.0275,-0.8662,0.3394
833693,-0.0355,-0.8682,0.3550
833717,-0.0522,-0.8721,0.3840
833740,-0.0609,-0.8740,0.3972
833762,-0.0698,-0.8760,0.4094
833779,-0.0878,-0.8792,0.4310
833796,-0.0968,-0.8805,0.4403
833818,-0.1058,-0.8815,0.4485
833863,-0.1313,-0.8828,0.4668
833887,-0.1389,-0.8826,0.4709
833926,-0.1521,-0.8802,0.4792
833944,-0.1624,-0.8787,0.4808
833966,-0.1664,-0.8767,0.4819
833989,-0.1697,-0.8744,0.4828
834021,-0.1742,-0.8687,0.4838
834042,-0.1755,-0.8655,0.4844
834066,-0.1768,-0.8589,0.4861
834089,-0.1765,-0.8556,0.4874
834111,-0.1750,-0.8499,0.4912
834131,-0.1738,-0.8473,0.4935
834154,-0.1724,-0.8450,0.4962
834194,-0.1672,-0.8391,0.5052
834227,-0.1639,-0.8357,0.5115
834250,-0.1624,-0.8339,0.5144
834267,-0.1610,-0.8319,0.5172
834289,-0.1598,-0.8297,0.5199
834311,-0.1578,-0.8248,0.5249
834328,-0.1570,-0.8220,0.5272
834351,-0.1562,-0.8191,0.5295
834373,-0.1548,-0.8123,0.5337
834390,-0.1542,-0.8082,0.5356
834408,-0.1534,-0.8038,0.5375
834429,-0.1526,-0.7988,0.5392
834449,-0.1517,-0.7932,0.5406
834495,-0.1481,-0.7717,0.5444
834518,-0.1465,-0.7628,0.5454
834540,-0.1429,-0.7428,0.5470
834563,-0.1412,-0.7321,0.5477
834583,-0.1399,-0.7212,0.5488
834604,-0.1381,-0.7008,0.5536
834621,-0.1377,-0.6923,0.5582
834644,-0.1377,-0.6854,0.5648
834674,-0.1390,-0.6783,0.5848
834697,-0.1405,-0.6786,0.5984
834721,-0.1453,-0.6875,0.6315
834744,-0.1484,-0.6962,0.6503
834766,-0.1519,-0.7078,0.6700
834783,-0.1553,-0.7220,0.6899
834822,-0.1628,-0.7797,0.7415
834869,-0.1600,-0.8525,0.7590
834892,-0.1558,-0.8785,0.7529
834909,-0.1499,-0.9048,0.7401
834931,-0.1422,-0.9313,0.7205
834953,-0.1221,-0.9835,0.6628
834970,-0.1095,-1.0087,0.6268
834993,-0.0955,-1.0325,0.5876
835015,-0.0636,-1.0740,0.5042
835055,-0.0292,-1.1042,0.4198
835078,-0.0121,-1.1141,0.3790
835095,0.0043,-1.1206,0.3398
835142,0.0458,-1.1182,0.2380
835163,0.0649,-1.1005,0.1874
835185,0.0718,-1.0876,0.1681
835208,0.0765,-1.0726,0.1531
835228,0.0806,-1.0374,0.1357
835245,0.0798,-1.0181,0.1332
835267,0.0775,-0.9980,0.1343
835313,0.0621,-0.9385,0.1567
835336,0.0549,-0.9199,0.1693
835353,0.0469,-0.9027,0.1838
835375,0.0385,-0.8870,0.1998
835397,0.0208,-0.8611,0.2350
835414,0.0120,-0.8511,0.2534
835432,0.0034,-0.8431,0.2721
835450,-0.0046,-0.8373,0.2908
835471,-0.0122,-0.8335,0.3091
835517,-0.0304,-0.8323,0.3599
835538,-0.0349,-0.8345,0.3748
835555,-0.0387,-0.8378,0.3883
835577,-0.0441,-0.8462,0.4113
835600,-0.0459,-0.8508,0.4204
835622,-0.0471,-0.8557,0.4280
835645,-0.0488,-0.8647,0.4384
835668,-0.0494,-0.8689,0.4414
835698,-0.0507,-0.8757,0.4436
835721,-0.0514,-0.8785,0.4431
835750,-0.0530,-0.8827,0.4399
835768,-0.0541,-0.8842,0.4377
835790,-0.0564,-0.8856,0.4331
835843,-0.0605,-0.8849,0.4270
835876,-0.0634,-0.8824,0.4242
835899,-0.0648,-0.8807,0.4232
835916,-0.0660,-0.8787,0.4225
835938,-0.0686,-0.8744,0.4218
835961,-0.0698,-0.8722,0.4218
835985,-0.0710,-0.8702,0.4219
836007,-0.0735,-0.8668,0.4224
836050,-0.0760,-0.8650,0.4231
836091,-0.0801,-0.8658,0.4241
836114,-0.0814,-0.8671,0.4243
836131,-0.0829,-0.8688,0.4244
836150,-0.0856,-0.8732,0.4242
836172,-0.0868,-0.8756,0.4240
836189,-0.0881,-0.8782,0.4233
836212,-0.0895,-0.8807,0.4226
836234,-0.0922,-0.8850,0.4203
836254,-0.0936,-0.8866,0.4188
836271,-0.0952,-0.8878,0.4171
836294,-0.0969,-0.8884,0.4153
836339,-0.1028,-0.8876,0.4098
836363,-0.1050,-0.8865,0.4082
836381,-0.1100,-0.8833,0.4059
836403,-0.1125,-0.8813,0.4052
836427,-0.1152,-0.8794,0.4048
836448,-0.1204,-0.8755,0.4053
836466,-0.1227,-0.8738,0.4062
836487,-0.1248,-0.8722,0.4075
836546,-0.1293,-0.8678,0.4163
836570,-0.1293,-0.8671,0.4191
836590,-0.1288,-0.8665,0.4221
836612,-0.1263,-0.8654,0.4286
836636,-0.1245,-0.8647,0.4320
836670,-0.1196,-0.8635,0.4393
836688,-0.1168,-0.8627,0.4431
836718,-0.1108,-0.8605,0.4513
836741,-0.1079,-0.8590,0.4556
836765,-0.1025,-0.8555,0.4648
836787,-0.1002,-0.8535,0.4697
836806,-0.0984,-0.8514,0.4750
836827,-0.0961,-0.8474,0.4860
836850,-0.0957,-0.8455,0.4917
836872,-0.0959,-0.8436,0.4976
836912,-0.1001,-0.8391,0.5159
836935,-0.1025,-0.8379,0.5222
836952,-0.1053,-0.8370,0.5288
836975,-0.1117,-0.8354,0.5424
836997,-0.1151,-0.8348,0.5492
837014,-0.1184,-0.8340,0.5559
837037,-0.1216,-0.8328,0.5624
837059,-0.1270,-0.8285,0.5739
837076,-0.1289,-0.8247,0.5782
837093,-0.1304,-0.8196,0.5814
837126,-0.1321,-0.8051,0.5834
837166,-0.1328,-0.7863,0.5792
837189,-0.1331,-0.7671,0.5714
837206,-0.1329,-0.7590,0.5673
837229,-0.1329,-0.7527,0.5634
837251,-0.1327,-0.7488,0.5602
837288,-0.1312,-0.7544,0.5591
837305,-0.1300,-0.7623,0.5623
837353,-0.1223,-0.8020,0.5809
837375,-0.1183,-0.8193,0.5885
837392,-0.1134,-0.8381,0.5953
837415,-0.1077,-0.8578,0.6008
837435,-0.1011,-0.8779,0.6041
837457,-0.0852,-0.9188,0.6018
837478,-0.0757,-0.9388,0.5955
837503,-0.0536,-0.9766,0.5723
837557,-0.0128,-1.0232,0.5135
837588,0.0168,-1.0453,0.4622
837605,0.0316,-1.0531,0.4342
837628,0.0457,-1.0586,0.4052
837649,0.0710,-1.0625,0.3463
837666,0.0818,-1.0610,0.3175
837688,0.0911,-1.0574,0.2899
837705,0.0989,-1.0515,0.2640
837743,0.1105,-1.0345,0.2189
837766,0.1173,-1.0120,0.1844
837783,0.1195,-0.9994,0.1716
837806,0.1208,-0.9862,0.1621
837828,0.1217,-0.9728,0.1558
837845,0.1219,-0.9592,0.1528
837867,0.1211,-0.9320,0.1567
837895,0.1199,-0.9062,0.1731
837936,0.1124,-0.8838,0.2009
837959,0.1088,-0.8744,0.2188
837976,0.1045,-0.8663,0.2388
837998,0.0947,-0.8551,0.2844
838021,0.0895,-0.8518,0.3092
838038,0.0840,-0.8501,0.3347
838060,0.0784,-0.8497,0.3604
838082,0.0668,-0.8523,0.4100
838099,0.0609,-0.8547,0.4329
838116,0.0548,-0.8575,0.4541
838139,0.0485,-0.8605,0.4731
838183,0.0275,-0.8685,0.5155
838207,0.0197,-0.8705,0.5243
838225,0.0028,-0.8727,0.5338
838247,-0.0062,-0.8729,0.5347
838270,-0.0154,-0.8727,0.5331
838287,-0.0248,-0.8718,0.5293
838309,-0.0437,-0.8682,0.5159
838326,-0.0529,-0.8652,0.5070
838367,-0.0704,-0.8574,0.4866
838388,-0.0786,-0.8525,0.4761
838412,-0.0930,-0.8414,0.4567
838433,-0.0991,-0.8354,0.4485
838455,-0.1046,-0.8295,0.4418
838475,-0.1138,-0.8181,0.4337
838510,-0.1204,-0.8090,0.4337
838560,-0.1267,-0.8018,0.4493
838585,-0.1281,-0.8013,0.4583
838605,-0.1304,-0.8027,0.4803
838627,-0.1313,-0.8044,0.4929
838652,-0.1324,-0.8066,0.5062
838673,-0.1346,-0.8116,0.5341
838696,-0.1357,-0.8142,0.5481
838713,-0.1366,-0.8165,0.5621
838730,-0.1372,-0.8184,0.5757
838752,-0.1375,-0.8197,0.6006
838797,-0.1366,-0.8168,0.6208
838821,-0.1353,-0.8088,0.6349
838844,-0.1346,-0.8032,0.6396
838866,-0.1343,-0.7968,0.6431
838888,-0.1344,-0.7823,0.6471
838905,-0.1351,-0.7753,0.6481
838930,-0.1364,-0.7688,0.6489
838952,-0.1405,-0.7590,0.6510
838990,-0.1459,-0.7555,0.6547
839013,-0.1484,-0.7566,0.6570
839037,-0.1525,-0.7646,0.6615
839060,-0.1534,-0.7715,0.6625
839082,-0.1526,-0.7904,0.6587
839099,-0.1505,-0.8024,0.6527
839137,-0.1426,-0.8312,0.6299
839155,-0.1364,-0.8479,0.6127
839187,-0.1190,-0.8855,0.5674
839207,-0.1077,-0.9059,0.5402
839231,-0.0792,-0.9480,0.4796
839254,-0.0625,-0.9689,0.4474
839276,-0.0443,-0.9889,0.4147
839293,-0.0250,-1.0077,0.3820
839315,0.0151,-1.0393,0.3187
839338,0.0352,-1.0514,0.2891
839378,0.0892,-1.0698,0.2130
839400,0.1039,-1.0696,0.1934
839424,0.1165,-1.0663,0.1769
839441,0.1266,-1.0601,0.1639
839461,0.1392,-1.0403,0.1486
839482,0.1416,-1.0273,0.1461
839501,0.1414,-1.0128,0.1469
839524,0.1387,-0.9972,0.1508
839549,0.1263,-0.9637,0.1665
839603,0.0934,-0.9149,0.2050
839628,0.0638,-0.8878,0.2362
839651,0.0476,-0.8768,0.2528
839673,0.0310,-0.8677,0.2699
839690,0.0142,-0.8605,0.2871
839732,-0.0358,-0.8494,0.3375
839750,-0.0516,-0.8489,0.3531
839780,-0.0817,-0.8517,0.3818
839803,-0.0956,-0.8547,0.3948
839827,-0.1211,-0.8625,0.4172
839850,-0.1328,-0.8668,0.4265
839872,-0.1543,-0.8751,0.4410
839889,-0.1642,-0.8787,0.4463
839911,-0.1735,-0.8816,0.4504
839934,-0.1821,-0.8839,0.4535
839974,-0.2028,-0.8857,0.4581
839997,-0.2079,-0.8844,0.4584
840014,-0.2122,-0.8821,0.4583
840037,-0.2181,-0.8745,0.4568
840059,-0.2200,-0.8695,0.4556
840097,-0.2218,-0.8578,0.4532
840115,-0.2219,-0.8514,0.4524
840138,-0.2207,-0.8386,0.4521
840155,-0.2195,-0.8325,0.4531
840194,-0.2159,-0.8213,0.4575
840216,-0.2139,-0.8164,0.4612
840239,-0.2091,-0.8082,0.4711
840262,-0.2065,-0.8051,0.4771
840284,-0.2012,-0.8003,0.4906
840301,-0.1984,-0.7987,0.4978
840347,-0.1932,-0.7965,0.5122
840387,-0.1870,-0.7944,0.5322
840410,-0.1855,-0.7937,0.5382
840435,-0.1837,-0.7911,0.5493
840457,-0.1833,-0.7892,0.5543
840476,-0.1833,-0.7867,0.5591
840498,-0.1841,-0.7795,0.5673
840518,-0.1849,-0.7749,0.5707
840539,-0.1859,-0.7695,0.5737
840604,-0.1908,-0.7428,0.5815
840645,-0.1934,-0.7291,0.5862
840668,-0.1958,-0.7178,0.5883
840693,-0.1970,-0.7135,0.5909
840715,-0.1998,-0.7086,0.5983
840734,-0.2014,-0.7084,0.6030
840756,-0.2030,-0.7098,0.6084
840773,-0.2047,-0.7129,0.6145
840795,-0.2076,-0.7240,0.6274
840839,-0.2096,-0.7415,0.6399
840862,-0.2098,-0.7642,0.6489
840887,-0.2090,-0.7771,0.6514
840909,-0.2073,-0.7908,0.6521
840949,-0.1968,-0.8348,0.6417
840969,-0.1913,-0.8500,0.6337
840991,-0.1846,-0.8654,0.6232
841013,-0.1671,-0.8966,0.5962
841043,-0.1436,-0.9279,0.5627
841066,-0.1293,-0.9431,0.5443
841090,-0.1135,-0.9578,0.5251
841112,-0.0781,-0.9834,0.4845
841135,-0.0592,-0.9938,0.4633
841152,-0.0398,-1.0020,0.4414
841175,-0.0009,-1.0114,0.3958
841198,0.0179,-1.0127,0.3724
841220,0.0361,-1.0118,0.3488
841258,0.0841,-0.9985,0.2800
841282,0.0975,-0.9915,0.2590
841300,0.1094,-0.9835,0.2396
841322,0.1284,-0.9664,0.2073
841344,0.1355,-0.9580,0.1948
841362,0.1410,-0.9500,0.1851
841386,0.1448,-0.9425,0.1781
841408,0.1478,-0.9294,0.1729
841438,0.1449,-0.9187,0.1785
841458,0.1415,-0.9139,0.1849
841480,0.1368,-0.9094,0.1934
841501,0.1310,-0.9053,0.2036
841521,0.1163,-0.8979,0.2281
841546,0.1077,-0.8948,0.2421
841584,0.0889,-0.8878,0.2878
841603,0.0692,-0.8861,0.3037
841653,0.0396,-0.8823,0.3502
841678,0.0300,-0.8813,0.3647
841700,0.0117,-0.8794,0.3921
841722,0.0032,-0.8785,0.4048
841745,-0.0051,-0.8776,0.4166
841766,-0.0206,-0.8755,0.4381
841788,-0.0280,-0.8744,0.4475
841828,-0.0420,-0.8721,0.4636
841851,-0.0554,-0.8696,0.4762
841868,-0.0619,-0.8684,0.4812
841892,-0.0682,-0.8672,0.4854
841915,-0.0809,-0.8645,0.4913
841932,-0.0872,-0.8630,0.4933
841968,-0.0994,-0.8596,0.4954
841991,-0.1053,-0.8578,0.4958
842022,-0.1166,-0.8540,0.4961
842045,-0.1217,-0.8522,0.4961
842062,-0.1263,-0.8503,0.4963
842084,-0.1342,-0.8472,0.4976
842107,-0.1372,-0.8457,0.4988
842124,-0.1396,-0.8445,0.5005
842146,-0.1423,-0.8422,0.5052
842168,-0.1427,-0.8413,0.5082
842203,-0.1416,-0.8396,0.5149
842221,-0.1403,-0.8389,0.5184
842243,-0.1383,-0.8381,0.5219
842272,-0.1334,-0.8365,0.5284
842295,-0.1278,-0.8344,0.5337
842320,-0.1249,-0.8330,0.5358
842342,-0.1221,-0.8314,0.5375
842364,-0.1169,-0.8271,0.5399
842381,-0.1147,-0.8246,0.5408
842404,-0.1129,-0.8218,0.5416
842421,-0.1115,-0.8186,0.5424
842463,-0.1099,-0.8074,0.5455
842502,-0.1112,-0.7985,0.5493
842519,-0.1125,-0.7937,0.5520
842539,-0.1143,-0.7887,0.5552
842560,-0.1185,-0.7782,0.5631
842583,-0.1210,-0.7726,0.5679
842605,-0.1235,-0.7670,0.5730
842623,-0.1285,-0.7555,0.5848
842677,-0.1340,-0.7382,0.6062
842704,-0.1349,-0.7327,0.6144
842726,-0.1350,-0.7220,0.6331
842748,-0.1340,-0.7172,0.6434
842769,-0.1324,-0.7128,0.6544
842809,-0.1230,-0.7035,0.6896
842848,-0.1138,-0.7031,0.7104
842871,-0.1029,-0.7104,0.7246
842896,-0.0972,-0.7178,0.7279
842918,-0.0912,-0.7277,0.7280
842940,-0.0791,-0.7565,0.7169
842957,-0.0731,-0.7754,0.7051
842980,-0.0671,-0.7974,0.6886
843002,-0.0553,-0.8496,0.6428
843041,-0.0422,-0.9103,0.5823
843064,-0.0348,-0.9423,0.5480
843081,-0.0264,-0.9745,0.5120
843112,-0.0060,-1.0359,0.4375
843135,0.0190,-1.0872,0.3641
843162,0.0328,-1.1072,0.3290
843185,0.0616,-1.1337,0.2639
843212,0.0758,-1.1399,0.2346
843229,0.0895,-1.1412,0.2081
843251,0.1140,-1.1309,0.1646
843293,0.1335,-1.1052,0.1361
843316,0.1472,-1.0682,0.1243
843341,0.1519,-1.0468,0.1248
843363,0.1552,-1.0243,0.1293
843385,0.1578,-0.9781,0.1490
843420,0.1562,-0.9338,0.1808
843437,0.1543,-0.9135,0.1997
843457,0.1516,-0.8947,0.2201
843486,0.1449,-0.8628,0.2627
843507,0.1411,-0.8501,0.2842
843531,0.1331,-0.8314,0.3253
843554,0.1290,-0.8254,0.3445
843576,0.1249,-0.8217,0.3624
843593,0.1208,-0.8198,0.3789
843615,0.1124,-0.8217,0.4069
843633,0.1082,-0.8247,0.4183
843695,0.0890,-0.8446,0.4490
843719,0.0834,-0.8501,0.4534
843737,0.0775,-0.8552,0.4568
843759,0.0713,-0.8599,0.4595
843780,0.0574,-0.8676,0.4630
843800,0.0497,-0.8704,0.4642
843822,0.0416,-0.8724,0.4651
843839,0.0331,-0.8737,0.4658
843877,0.0054,-0.8735,0.4669
843915,-0.0145,-0.8706,0.4670
843932,-0.0247,-0.8685,0.4669
843955,-0.0348,-0.8662,0.4667
843977,-0.0551,-0.8611,0.4657
843994,-0.0649,-0.8586,0.4648
844027,-0.0835,-0.8536,0.4630
844044,-0.0922,-0.8512,0.4618
844074,-0.1080,-0.8462,0.4591
844097,-0.1151,-0.8435,0.4576
844121,-0.1218,-0.8408,0.4561
844143,-0.1337,-0.8351,0.4532
844166,-0.1389,-0.8320,0.4523
844183,-0.1437,-0.8289,0.4518
844205,-0.1523,-0.8226,0.4526
844227,-0.1561,-0.8196,0.4545
844244,-0.1598,-0.8167,0.4574
844262,-0.1631,-0.8138,0.4615
844284,-0.1660,-0.8113,0.4670
844327,-0.1732,-0.8055,0.4917
844355,-0.1761,-0.8040,0.5142
844372,-0.1770,-0.8038,0.5267
844395,-0.1774,-0.8041,0.5400
844418,-0.1772,-0.8044,0.5536
844439,-0.1755,-0.8054,0.5809
844463,-0.1741,-0.8058,0.5942
844482,-0.1721,-0.8057,0.6068
844519,-0.1644,-0.8021,0.6398
844538,-0.1614,-0.7994,0.6488
844563,-0.1581,-0.7961,0.6566
844583,-0.1516,-0.7871,0.6687
844605,-0.1483,-0.7817,0.6729
844630,-0.1453,-0.7758,0.6758
844655,-0.1396,-0.7626,0.6779
844674,-0.1373,-0.7559,0.6772
844726,-0.1323,-0.7361,0.6691
844751,-0.1310,-0.7253,0.6602
844774,-0.1310,-0.7209,0.6550
844793,-0.1313,-0.7177,0.6498
844817,-0.1333,-0.7141,0.6395
844839,-0.1348,-0.7142,0.6346
844861,-0.1365,-0.7155,0.6300
844900,-0.1422,-0.7264,0.6165
844923,-0.1443,-0.7327,0.6113
844963,-0.1503,-0.7590,0.5916
844985,-0.1519,-0.7708,0.5828
845010,-0.1531,-0.7841,0.5725
845032,-0.1539,-0.8159,0.5480
845055,-0.1533,-0.8345,0.5337
845094,-0.1449,-0.8997,0.4865
845116,-0.1396,-0.9238,0.4702
845133,-0.1329,-0.9485,0.4542
845156,-0.1249,-0.9729,0.4386
845173,-0.1156,-0.9963,0.4235
845200,-0.0942,-1.0377,0.3948
845223,-0.0825,-1.0543,0.3812
845245,-0.0582,-1.0769,0.3553
845267,-0.0461,-1.0822,0.3431
845299,-0.0233,-1.0806,0.3203
845319,-0.0129,-1.0739,0.3101
845343,0.0055,-1.0502,0.2927
845366,0.0133,-1.0343,0.2860
845388,0.0203,-1.0164,0.2809
845405,0.0264,-0.9971,0.2773
845427,0.0361,-0.9568,0.2755
845446,0.0398,-0.9368,0.2771
845470,0.0428,-0.9175,0.2802
845492,0.0468,-0.8824,0.2900
845515,0.0477,-0.8671,0.2966
845552,0.0476,-0.8416,0.3127
845580,0.0442,-0.8236,0.3320
845598,0.0411,-0.8177,0.3425
845620,0.0371,-0.8137,0.3539
845642,0.0269,-0.8112,0.3782
845659,0.0205,-0.8121,0.3910
845685,0.0134,-0.8145,0.4041
845707,-0.0026,-0.8223,0.4304
845761,-0.0302,-0.8386,0.4685
845786,-0.0500,-0.8507,0.4911
845807,-0.0602,-0.8564,0.5011
845829,-0.0704,-0.8618,0.5100
845853,-0.0908,-0.8710,0.5245
845879,-0.1007,-0.8746,0.5299
845898,-0.1102,-0.8776,0.5339
845938,-0.1346,-0.8823,0.5383
845991,-0.1508,-0.8809,0.5321
846009,-0.1541,-0.8789,0.5281
846032,-0.1562,-0.8763,0.5229
846054,-0.1578,-0.8694,0.5106
846071,-0.1573,-0.8652,0.5035
846096,-0.1561,-0.8610,0.4962
846118,-0.1520,-0.8524,0.4813
846148,-0.1461,-0.8451,0.4670
846180,-0.1429,-0.8423,0.4606
846198,-0.1364,-0.8381,0.4490
846220,-0.1332,-0.8370,0.4441
846243,-0.1301,-0.8364,0.4397
846260,-0.1272,-0.8364,0.4360
846282,-0.1223,-0.8378,0.4304
846299,-0.1201,-0.8389,0.4286
846344,-0.1166,-0.8419,0.4266
846365,-0.1136,-0.8450,0.4270
846382,-0.1123,-0.8464,0.4281
846405,-0.1111,-0.8477,0.4297
846427,-0.1097,-0.8485,0.4319
846448,-0.1071,-0.8494,0.4380
846486,-0.1041,-0.8486,0.4463
846531,-0.0994,-0.8451,0.4626
846550,-0.0977,-0.8436,0.4692
846575,-0.0959,-0.8419,0.4763
846595,-0.0924,-0.8387,0.4918
846618,-0.0906,-0.8373,0.5001
846642,-0.0887,-0.8358,0.5087
846664,-0.0850,-0.8333,0.5256
846687,-0.0830,-0.8322,0.5337
846744,-0.0765,-0.8296,0.5599
846769,-0.0754,-0.8293,0.5643
846792,-0.0745,-0.8295,0.5701
846811,-0.0745,-0.8300,0.5714
846832,-0.0751,-0.8304,0.5717
846854,-0.0760,-0.8312,0.5709
846875,-0.0793,-0.8331,0.5667
846900,-0.0818,-0.8342,0.5634
846917,-0.0845,-0.8354,0.5593
846939,-0.0876,-0.8365,0.5549
846986,-0.0985,-0.8387,0.5396
847009,-0.1064,-0.8383,0.5287
847026,-0.1104,-0.8373,0.5231
847049,-0.1140,-0.8358,0.5175
847071,-0.1206,-0.8317,0.5055
847097,-0.1232,-0.8295,0.4993
847117,-0.1249,-0.8275,0.4927
847139,-0.1250,-0.8259,0.4789
847162,-0.1233,-0.8270,0.4714
847201,-0.1165,-0.8345,0.4551
847224,-0.1046,-0.8499,0.4382
847244,-0.0966,-0.8605,0.4304
847266,-0.0868,-0.8727,0.4233
847288,-0.0616,-0.9011,0.4119
847305,-0.0466,-0.9165,0.4072
847322,-0.0303,-0.9320,0.4030
847345,-0.0128,-0.9471,0.3988
847382,0.0240,-0.9747,0.3899
847406,0.0613,-0.9961,0.3789
847429,0.0791,-1.0038,0.3727
847449,0.0961,-1.0094,0.3661
847470,0.1263,-1.0145,0.3523
847493,0.1393,-1.0140,0.3455
847515,0.1505,-1.0118,0.3391
847532,0.1600,-1.0079,0.3333
847569,0.1776,-0.9877,0.3202
847592,0.1799,-0.9788,0.3176
847616,0.1794,-0.9586,0.3153
847638,0.1770,-0.9478,0.3156
847661,0.1732,-0.9366,0.3165
847678,0.1682,-0.9255,0.3185
847711,0.1552,-0.9042,0.3245
847730,0.1387,-0.8850,0.3335
847777,0.1199,-0.8687,0.3452
847802,0.0996,-0.8558,0.3596
847825,0.0892,-0.8507,0.3676
847847,0.0677,-0.8433,0.3848
847864,0.0569,-0.8409,0.3938
847887,0.0460,-0.8396,0.4028
847907,0.0352,-0.8392,0.4120
847953,0.0028,-0.8436,0.4390
847976,-0.0076,-0.8467,0.4475
847993,-0.0177,-0.8505,0.4557
848016,-0.0364,-0.8591,0.4706
848039,-0.0450,-0.8638,0.4772
848059,-0.0530,-0.8684,0.4829
848081,-0.0669,-0.8768,0.4921
848104,-0.0728,-0.8806,0.4954
848121,-0.0778,-0.8838,0.4978
848138,-0.0819,-0.8866,0.4994
848160,-0.0876,-0.8907,0.4999
848205,-0.0903,-0.8928,0.4969
848228,-0.0903,-0.8929,0.4912
848245,-0.0894,-0.8925,0.4875
848268,-0.0879,-0.8915,0.4834
848290,-0.0839,-0.8888,0.4741
848325,-0.0785,-0.8854,0.4644
848342,-0.0756,-0.8837,0.4597
848365,-0.0725,-0.8821,0.4551
848394,-0.0664,-0.8790,0.4469
848417,-0.0635,-0.8777,0.4434
848439,-0.0582,-0.8754,0.4375
848458,-0.0559,-0.8745,0.4352
848480,-0.0538,-0.8737,0.4333
848502,-0.0521,-0.8730,0.4318
848524,-0.0497,-0.8722,0.4298
848549,-0.0491,-0.8719,0.4293
848586,-0.0491,-0.8722,0.4293
848625,-0.0503,-0.8730,0.4303
848642,-0.0514,-0.8738,0.4308
848665,-0.0525,-0.8745,0.4312
848687,-0.0552,-0.8762,0.4314
848704,-0.0568,-0.8772,0.4312
848727,-0.0583,-0.8783,0.4305
848752,-0.0616,-0.8807,0.4286
848799,-0.0652,-0.8834,0.4253
848824,-0.0687,-0.8862,0.4211
848847,-0.0703,-0.8875,0.4187
848869,-0.0734,-0.8900,0.4136
848886,-0.0746,-0.8911,0.4109
848909,-0.0757,-0.8922,0.4082
848934,-0.0774,-0.8942,0.4030
848973,-0.0784,-0.8959,0.3981
848996,-0.0786,-0.8967,0.3958
849013,-0.0789,-0.8973,0.3937
849035,-0.0791,-0.8986,0.3901
849058,-0.0791,-0.8989,0.3888
849075,-0.0790,-0.8992,0.3877
849097,-0.0786,-0.8993,0.3870
849119,-0.0774,-0.8987,0.3865
849139,-0.0764,-0.8978,0.3868
849157,-0.0751,-0.8966,0.3875
849179,-0.0735,-0.8951,0.3883
849233,-0.0648,-0.8862,0.3940
849264,-0.0597,-0.8813,0.3981
849284,-0.0573,-0.8792,0.4003
849307,-0.0549,-0.8771,0.4028
849329,-0.0511,-0.8735,0.4082
849346,-0.0498,-0.8722,0.4111
849363,-0.0487,-0.8708,0.4142
849386,-0.0480,-0.8698,0.4175
849422,-0.0475,-0.8676,0.4246
849443,-0.0476,-0.8663,0.4282
849464,-0.0488,-0.8632,0.4352
849486,-0.0498,-0.8612,0.4384
849506,-0.0509,-0.8589,0.4414
849529,-0.0533,-0.8534,0.4470
849560,-0.0557,-0.8467,0.4528
849577,-0.0565,-0.8429,0.4561
849614,-0.0571,-0.8348,0.4647
849637,-0.0568,-0.8306,0.4702
849661,-0.0547,-0.8217,0.4841
849684,-0.0530,-0.8170,0.4926
849706,-0.0507,-0.8124,0.5020
849723,-0.0481,-0.8079,0.5121
849745,-0.0422,-0.7993,0.5341
849768,-0.0392,-0.7955,0.5455
849825,-0.0284,-0.7850,0.5902
849866,-0.0259,-0.7834,0.6090
849889,-0.0265,-0.7849,0.6238
849913,-0.0282,-0.7870,0.6296
849935,-0.0311,-0.7900,0.6343
849956,-0.0399,-0.7990,0.6401
850004,-0.0603,-0.8197,0.6405
850026,-0.0684,-0.8284,0.6383
850043,-0.0765,-0.8378,0.6348
850066,-0.0846,-0.8478,0.6299
850088,-0.0994,-0.8698,0.6152
850105,-0.1055,-0.8815,0.6052
850128,-0.1105,-0.8936,0.5933
850168,-0.1177,-0.9327,0.5443
850191,-0.1172,-0.9470,0.5239
850214,-0.1150,-0.9617,0.5021
850258,-0.0974,-1.0065,0.4327
850281,-0.0881,-1.0206,0.4098
850305,-0.0662,-1.0454,0.3660
850328,-0.0538,-1.0553,0.3459
850350,-0.0282,-1.0679,0.3103
850367,-0.0154,-1.0699,0.2949
850391,-0.0032,-1.0691,0.2812
850414,0.0186,-1.0582,0.2585
850452,0.0349,-1.0364,0.2419
850476,0.0408,-1.0222,0.2360
850493,0.0449,-1.0063,0.2314
850512,0.0476,-0.9894,0.2284
850533,0.0481,-0.9540,0.2266
850558,0.0461,-0.9363,0.2275
850580,0.0427,-0.9192,0.2297
850597,0.0320,-0.8885,0.2371
850641,0.0167,-0.8646,0.2484
850664,-0.0016,-0.8484,0.2639
850689,-0.0114,-0.8429,0.2729
850711,-0.0215,-0.8392,0.2827
850733,-0.0419,-0.8361,0.3035
850750,-0.0519,-0.8363,0.3140
850785,-0.0708,-0.8395,0.3346
850803,-0.0795,-0.8420,0.3444
850850,-0.1011,-0.8522,0.3708
850875,-0.1067,-0.8561,0.3784
850897,-0.1151,-0.8643,0.3916
850920,-0.1179,-0.8684,0.3973
850937,-0.1198,-0.8726,0.4025
850959,-0.1208,-0.8768,0.4072
850981,-0.1206,-0.8848,0.4152
850998,-0.1195,-0.8884,0.4185
851021,-0.1179,-0.8917,0.4214
851042,-0.1138,-0.8976,0.4261
851079,-0.1089,-0.9020,0.4294
851103,-0.1063,-0.9037,0.4305
851121,-0.1038,-0.9049,0.4312
851164,-0.0963,-0.9067,0.4310
851188,-0.0940,-0.9066,0.4303
851213,-0.0901,-0.9053,0.4281
851246,-0.0872,-0.9027,0.4248
851282,-0.0854,-0.8994,0.4210
851305,-0.0852,-0.8976,0.4191
851322,-0.0857,-0.8942,0.4152
851344,-0.0865,-0.8926,0.4135
851367,-0.0876,-0.8912,0.4119
851384,-0.0890,-0.8901,0.4105
851411,-0.0924,-0.8885,0.4083
851429,-0.0942,-0.8879,0.4076
851472,-0.1001,-0.8870,0.4064
851494,-0.1021,-0.8867,0.4060
851515,-0.1039,-0.8864,0.4058
851534,-0.1055,-0.8857,0.4055
851556,-0.1084,-0.8842,0.4050
851578,-0.1097,-0.8831,0.4047
851597,-0.1108,-0.8815,0.4043
851621,-0.1128,-0.8774,0.4031
851659,-0.1144,-0.8721,0.4017
851682,-0.1151,-0.8689,0.4011
851713,-0.1165,-0.8618,0.4008
851731,-0.1169,-0.8582,0.4014
851753,-0.1173,-0.8508,0.4043
851772,-0.1171,-0.8474,0.4072
851794,-0.1165,-0.8442,0.4111
851816,-0.1155,-0.8412,0.4161
851834,-0.1119,-0.8359,0.4298
851888,-0.1030,-0.8298,0.4583
851913,-0.0992,-0.8281,0.4692
851935,-0.0912,-0.8251,0.4923
851958,-0.0872,-0.8237,0.5039
851975,-0.0834,-0.8225,0.5153
852018,-0.0742,-0.8190,0.5469
852058,-0.0708,-0.8162,0.5646
852081,-0.0701,-0.8123,0.5789
852098,-0.0706,-0.8096,0.5846
852118,-0.0718,-0.8064,0.5895
852141,-0.0735,-0.8024,0.5933
852165,-0.0781,-0.7921,0.5980
852188,-0.0809,-0.7855,0.5991
852210,-0.0840,-0.7782,0.5994
852227,-0.0874,-0.7700,0.5990
852244,-0.0911,-0.7611,0.5981
852266,-0.0989,-0.7429,0.5970
852314,-0.1090,-0.7203,0.6047
852339,-0.1111,-0.7159,0.6119
852357,-0.1123,-0.7135,0.6219
852379,-0.1118,-0.7162,0.6506
852402,-0.1100,-0.7212,0.6689
852421,-0.1073,-0.7288,0.6891
852442,-0.1036,-0.7384,0.7106
852463,-0.0939,-0.7637,0.7538
852500,-0.0813,-0.7952,0.7906
852523,-0.0743,-0.8126,0.8040
852547,-0.0598,-0.8505,0.8151
852570,-0.0527,-0.8704,0.8112
852592,-0.0397,-0.9117,0.7827
852615,-0.0339,-0.9327,0.7582
852650,-0.0236,-0.9742,0.6923
852668,-0.0183,-0.9940,0.6528
852698,-0.0067,-1.0289,0.5671
852721,0.0001,-1.0432,0.5229
852745,0.0159,-1.0627,0.4362
852768,0.0245,-1.0673,0.3948
852790,0.0422,-1.0656,0.3182
852807,0.0508,-1.0594,0.2839
852830,0.0587,-1.0503,0.2527
852852,0.0660,-1.0385,0.2250
852909,0.0891,-0.9739,0.1560
852940,0.0986,-0.9388,0.1481
852957,0.1031,-0.9226,0.1503
852980,0.1077,-0.9076,0.1560
853002,0.1122,-0.8943,0.1648
853019,0.1166,-0.8829,0.1761
853041,0.1244,-0.8665,0.2045
853066,0.1276,-0.8613,0.2207
853096,0.1323,-0.8569,0.2554
853118,0.1334,-0.8584,0.2908
853141,0.1324,-0.8607,0.3080
853164,0.1300,-0.8636,0.3247
853186,0.1206,-0.8702,0.3555
853203,0.1135,-0.8733,0.3694
853241,0.0945,-0.8785,0.3939
853259,0.0826,-0.8802,0.4047
853294,0.0551,-0.8818,0.4229
853317,0.0233,-0.8813,0.4371
853334,0.0065,-0.8805,0.4427
853357,-0.0107,-0.8795,0.4474
853379,-0.0281,-0.8785,0.4512
853399,-0.0620,-0.8772,0.4561
853421,-0.0780,-0.8770,0.4575
853442,-0.0933,-0.8770,0.4583
853465,-0.1205,-0.8781,0.4579
853487,-0.1321,-0.8789,0.4569
853510,-0.1425,-0.8798,0.4556
853540,-0.1586,-0.8816,0.4517
853598,-0.1726,-0.8837,0.4404
853616,-0.1726,-0.8838,0.4371
853635,-0.1715,-0.8835,0.4336
853658,-0.1693,-0.8833,0.4301
853675,-0.1663,-0.8828,0.4265
853692,-0.1624,-0.8822,0.4229
853714,-0.1530,-0.8809,0.4160
853759,-0.1422,-0.8796,0.4100
853782,-0.1310,-0.8788,0.4050
853799,-0.1255,-0.8787,0.4031
853822,-0.1201,-0.8787,0.4015
853844,-0.1102,-0.8794,0.3993
853870,-0.1056,-0.8799,0.3986
853891,-0.1013,-0.8806,0.3982
853913,-0.0936,-0.8821,0.3982
853936,-0.0902,-0.8828,0.3986
853982,-0.0812,-0.8840,0.4000
854007,-0.0785,-0.8839,0.4008
854029,-0.0739,-0.8833,0.4022
854052,-0.0717,-0.8826,0.4031
854069,-0.0696,-0.8816,0.4041
854093,-0.0658,-0.8792,0.4064
854116,-0.0638,-0.8776,0.4077
854152,-0.0599,-0.8735,0.4110
854176,-0.0554,-0.8683,0.4148
854193,-0.0527,-0.8651,0.4169
854216,-0.0497,-0.8617,0.4191
854238,-0.0464,-0.8578,0.4213
854255,-0.0383,-0.8495,0.4258
854277,-0.0336,-0.8452,0.4282
854294,-0.0286,-0.8409,0.4307
854340,-0.0111,-0.8296,0.4393
854363,-0.0048,-0.8265,0.4429
854387,0.0081,-0.8218,0.4514
854409,0.0145,-0.8202,0.4567
854432,0.0208,-0.8191,0.4625
854453,0.0270,-0.8185,0.4691
854475,0.0387,-0.8182,0.4841
854499,0.0444,-0.8185,0.4928
854531,0.0563,-0.8196,0.5125
854552,0.0698,-0.8208,0.5361
854569,0.0778,-0.8212,0.5497
854590,0.0867,-0.8215,0.5641
854612,0.0966,-0.8217,0.5792
854634,0.1073,-0.8217,0.5948
854655,0.1309,-0.8221,0.6252
854678,0.1433,-0.8230,0.6389
854725,0.1805,-0.8324,0.6660
854748,0.1915,-0.8387,0.6681
854781,0.2095,-0.8572,0.6584
854801,0.2196,-0.8838,0.6284
854821,0.2212,-0.9000,0.6057
854845,0.2205,-0.9181,0.5782
854867,0.2112,-0.9584,0.5109
854892,0.2028,-0.9801,0.4723
854910,0.1918,-1.0021,0.4315
854932,0.1632,-1.0450,0.3478
854993,0.1083,-1.0968,0.2306
855018,0.0686,-1.1163,0.1666
855041,0.0492,-1.1202,0.1404
855081,-0.0029,-1.1075,0.0857
855098,-0.0173,-1.0956,0.0756
855115,-0.0302,-1.0803,0.0691
855138,-0.0414,-1.0623,0.0660
855173,-0.0586,-1.0208,0.0695
855196,-0.0701,-0.9758,0.0836
855221,-0.0739,-0.9537,0.0942
855243,-0.0768,-0.9325,0.1067
855275,-0.0803,-0.8948,0.1364
855296,-0.0822,-0.8656,0.1710
855321,-0.0826,-0.8549,0.1897
855366,-0.0840,-0.8378,0.2490
855390,-0.0845,-0.8369,0.2693
855408,-0.0852,-0.8381,0.2893
855428,-0.0872,-0.8450,0.3282
855450,-0.0885,-0.8500,0.3468
855472,-0.0901,-0.8556,0.3645
855493,-0.0935,-0.8674,0.3970
855516,-0.0952,-0.8733,0.4115
855558,-0.0994,-0.8889,0.4471
855580,-0.1001,-0.8932,0.4562
855597,-0.1002,-0.8970,0.4639
855620,-0.0997,-0.9001,0.4700
855642,-0.0970,-0.9044,0.4780
855659,-0.0948,-0.9056,0.4800
855699,-0.0884,-0.9060,0.4800
855737,-0.0800,-0.9044,0.4720
855770,-0.0703,-0.9012,0.4629
855793,-0.0603,-0.8973,0.4578
855810,-0.0553,-0.8953,0.4524
855833,-0.0505,-0.8932,0.4471
855855,-0.0419,-0.8894,0.4371
855872,-0.0380,-0.8877,0.4326
855895,-0.0345,-0.8864,0.4287
855917,-0.0316,-0.8851,0.4252
855934,-0.0291,-0.8840,0.4221
855952,-0.0271,-0.8833,0.4197
855974,-0.0247,-0.8822,0.4163
855998,-0.0242,-0.8820,0.4152
856045,-0.0256,-0.8817,0.4142
856070,-0.0286,-0.8821,0.4149
856093,-0.0305,-0.8822,0.4156
856115,-0.0326,-0.8826,0.4165
856132,-0.0348,-0.8828,0.4175
856156,-0.0394,-0.8837,0.4199
856177,-0.0416,-0.8840,0.4213
856215,-0.0460,-0.8848,0.4258
856238,-0.0498,-0.8850,0.4272
856255,-0.0515,-0.8849,0.4287
856278,-0.0530,-0.8846,0.4302
856303,-0.0557,-0.8839,0.4330
856320,-0.0568,-0.8834,0.4343
856343,-0.0576,-0.8829,0.4357
856360,-0.0585,-0.8824,0.4370
856404,-0.0603,-0.8811,0.4410
856425,-0.0605,-0.8807,0.4423
856447,-0.0602,-0.8800,0.4448
856467,-0.0594,-0.8795,0.4462
856486,-0.0583,-0.8790,0.4474
856508,-0.0568,-0.8784,0.4485
856529,-0.0547,-0.8777,0.4496
856549,-0.0487,-0.8760,0.4513
856566,-0.0448,-0.8749,0.4519
856608,-0.0352,-0.8728,0.4529
856632,-0.0234,-0.8706,0.4537
856649,-0.0168,-0.8696,0.4542
856671,-0.0099,-0.8688,0.4550
856690,-0.0024,-0.8680,0.4559
856707,0.0054,-0.8676,0.4574
856729,0.0217,-0.8673,0.4613
856749,0.0300,-0.8677,0.4639
856794,0.0543,-0.8700,0.4725
856816,0.0621,-0.8713,0.4753
856833,0.0696,-0.8730,0.4780
856856,0.0768,-0.8750,0.4803
856878,0.0906,-0.8789,0.4844
856895,0.0972,-0.8806,0.4861
856940,0.1102,-0.8820,0.4895
856958,0.1234,-0.8790,0.4930
856976,0.1301,-0.8755,0.4949
856999,0.1370,-0.8706,0.4965
857060,0.1620,-0.8416,0.4990
857085,0.1670,-0.8339,0.4984
857107,0.1747,-0.8215,0.4956
857129,0.1774,-0.8179,0.4934
857146,0.1791,-0.8160,0.4907
857169,0.1801,-0.8167,0.4875
857191,0.1788,-0.8250,0.4788
857228,0.1730,-0.8428,0.4661
857252,0.1681,-0.8550,0.4580
857270,0.1617,-0.8691,0.4486
857287,0.1443,-0.9016,0.4255
857309,0.1332,-0.9193,0.4119
857336,0.1201,-0.9375,0.3967
857358,0.0890,-0.9739,0.3629
857383,0.0709,-0.9913,0.3447
857421,0.0094,-1.0359,0.2891
857440,-0.0126,-1.0471,0.2714
857462,-0.0344,-1.0559,0.2549
857483,-0.0558,-1.0623,0.2399
857503,-0.0956,-1.0669,0.2150
857528,-0.1134,-1.0651,0.2056
857559,-0.1434,-1.0531,0.1925
857584,-0.1656,-1.0306,0.1870
857615,-0.1737,-1.0161,0.1866
857638,-0.1846,-0.9821,0.1902
857655,-0.1875,-0.9635,0.1938
857678,-0.1890,-0.9448,0.1989
