timestamp,acc_x,acc_y,acc_z
875566,-0.2532,-0.6525,-0.7007
875638,-0.2534,-0.6521,-0.7014
875648,-0.2534,-0.6521,-0.7014
875663,-0.2535,-0.6521,-0.7017
875679,-0.2535,-0.6522,-0.7018
875694,-0.2534,-0.6523,-0.7019
875712,-0.2533,-0.6523,-0.7020
875728,-0.2532,-0.6525,-0.7021
875744,-0.2531,-0.6525,-0.7023
875760,-0.2531,-0.6525,-0.7023
875799,-0.2529,-0.6522,-0.7021
875814,-0.2529,-0.6521,-0.7021
875830,-0.2529,-0.6520,-0.7020
875840,-0.2529,-0.6520,-0.7020
875855,-0.2531,-0.6519,-0.7020
875869,-0.2531,-0.6519,-0.7020
875896,-0.2529,-0.6517,-0.7020
875906,-0.2531,-0.6516,-0.7020
875922,-0.2531,-0.6516,-0.7021
875938,-0.2532,-0.6515,-0.7021
875953,-0.2533,-0.6515,-0.7023
875971,-0.2534,-0.6515,-0.7024
875981,-0.2534,-0.6515,-0.7024
875997,-0.2535,-0.6514,-0.7025
876013,-0.2535,-0.6512,-0.7025
876029,-0.2537,-0.6512,-0.7025
876065,-0.2538,-0.6515,-0.7021
876081,-0.2537,-0.6516,-0.7019
876097,-0.2534,-0.6517,-0.7015
876107,-0.2534,-0.6517,-0.7014
876123,-0.2532,-0.6519,-0.7010
876141,-0.2529,-0.6519,-0.7008
876157,-0.2528,-0.6519,-0.7008
876175,-0.2526,-0.6519,-0.7008
876211,-0.2522,-0.6526,-0.7012
876227,-0.2520,-0.6534,-0.7013
876256,-0.2517,-0.6567,-0.7020
876272,-0.2515,-0.6580,-0.7023
876288,-0.2513,-0.6608,-0.7025
876298,-0.2512,-0.6643,-0.7026
876314,-0.2511,-0.6687,-0.7019
876329,-0.2510,-0.6711,-0.7012
876345,-0.2506,-0.6766,-0.6991
876363,-0.2487,-0.6852,-0.6945
876378,-0.2473,-0.6879,-0.6926
876388,-0.2430,-0.6924,-0.6895
876403,-0.2400,-0.6945,-0.6884
876419,-0.2318,-0.6991,-0.6879
876448,-0.2120,-0.7177,-0.6992
876464,-0.2041,-0.7340,-0.7156
876480,-0.2003,-0.7532,-0.7423
876504,-0.2053,-0.7789,-0.8041
876520,-0.2169,-0.7876,-0.8572
876536,-0.2346,-0.7850,-0.9144
876551,-0.2578,-0.7694,-0.9685
876561,-0.2710,-0.7568,-0.9918
876577,-0.2990,-0.7234,-1.0262
876596,-0.3268,-0.6823,-1.0387
876611,-0.3511,-0.6383,-1.0247
876676,-0.3406,-0.5316,-0.7152
876696,-0.2997,-0.5406,-0.5966
876712,-0.2435,-0.5665,-0.4730
876728,-0.1743,-0.6077,-0.3496
876744,-0.0955,-0.6605,-0.2306
876762,-0.0109,-0.7207,-0.1195
876778,0.0754,-0.7831,-0.0193
876828,0.3049,-0.9399,0.2012
876857,0.4062,-0.9908,0.2637
876873,0.4375,-0.9949,0.2628
876888,0.4552,-0.9839,0.2380
876906,0.4591,-0.9580,0.1884
876922,0.4495,-0.9193,0.1134
876938,0.4274,-0.8704,0.0135
876954,0.3951,-0.8146,-0.1116
876972,0.3560,-0.7550,-0.2617
876988,0.3140,-0.6938,-0.4340
876998,0.2931,-0.6635,-0.5266
877014,0.2539,-0.6053,-0.7189
877030,0.2198,-0.5546,-0.9103
877070,0.1604,-0.4850,-1.2971
877088,0.1455,-0.4838,-1.3864
877116,0.1249,-0.5172,-1.4305
877132,0.1171,-0.5437,-1.3922
877147,0.1135,-0.5574,-1.3608
877163,0.1064,-0.5837,-1.2797
877179,0.0994,-0.6068,-1.1814
877189,0.0922,-0.6254,-1.0753
877199,0.0884,-0.6329,-1.0220
877215,0.0809,-0.6445,-0.9193
877231,0.0737,-0.6522,-0.8270
877247,0.0673,-0.6570,-0.7496
877276,0.0591,-0.6605,-0.6659
877292,0.0549,-0.6617,-0.6317
877308,0.0518,-0.6628,-0.6135
877318,0.0507,-0.6637,-0.6097
877334,0.0493,-0.6659,-0.6111
877350,0.0494,-0.6692,-0.6219
877366,0.0511,-0.6737,-0.6390
877384,0.0547,-0.6792,-0.6598
877421,0.0719,-0.6951,-0.7107
877437,0.0812,-0.7015,-0.7257
877466,0.0957,-0.7106,-0.7390
877482,0.1049,-0.7157,-0.7416
877498,0.1130,-0.7196,-0.7399
877508,0.1199,-0.7224,-0.7350
877524,0.1228,-0.7234,-0.7278
877540,0.1273,-0.7242,-0.7239
877556,0.1304,-0.7240,-0.7157
877574,0.1320,-0.7223,-0.7046
877589,0.1318,-0.7214,-0.7015
877612,0.1295,-0.7185,-0.6949
877628,0.1268,-0.7166,-0.6929
877686,0.1129,-0.7096,-0.6958
877726,0.1025,-0.7065,-0.7013
877742,0.0991,-0.7061,-0.7024
877757,0.0966,-0.7058,-0.7023
877767,0.0956,-0.7059,-0.7015
877783,0.0941,-0.7067,-0.6984
877799,0.0935,-0.7081,-0.6927
877809,0.0935,-0.7092,-0.6890
877825,0.0940,-0.7118,-0.6796
877852,0.0972,-0.7184,-0.6556
877867,0.0985,-0.7201,-0.6494
877883,0.1013,-0.7236,-0.6376
877901,0.1045,-0.7288,-0.6254
877917,0.1077,-0.7312,-0.6241
877933,0.1101,-0.7319,-0.6268
877949,0.1112,-0.7317,-0.6401
877967,0.1090,-0.7263,-0.6849
877982,0.1071,-0.7230,-0.7072
877998,0.1010,-0.7144,-0.7622
878026,0.0812,-0.6888,-0.9061
878066,0.0508,-0.6440,-1.0948
878082,0.0406,-0.6241,-1.1505
878097,0.0332,-0.6049,-1.1846
878107,0.0309,-0.5961,-1.1918
878123,0.0293,-0.5809,-1.1843
878139,0.0325,-0.5708,-1.1466
878155,0.0411,-0.5675,-1.0789
878173,0.0554,-0.5726,-0.9838
878189,0.0756,-0.5875,-0.8657
878205,0.1010,-0.6128,-0.7306
878221,0.1311,-0.6482,-0.5851
878257,0.2008,-0.7426,-0.2913
878273,0.2372,-0.7955,-0.1558
878289,0.2719,-0.8473,-0.0345
878307,0.3032,-0.8947,0.0688
878341,0.3492,-0.9668,0.2167
878357,0.3621,-0.9900,0.2607
878375,0.3678,-1.0048,0.2915
878391,0.3669,-1.0117,0.2931
878406,0.3607,-1.0116,0.2843
878422,0.3508,-1.0049,0.2606
878458,0.3214,-0.9655,0.1464
878473,0.3159,-0.9546,0.1154
878489,0.3058,-0.9309,0.0459
878507,0.2916,-0.8904,-0.0751
878522,0.2869,-0.8759,-0.1198
878538,0.2767,-0.8457,-0.2157
878554,0.2649,-0.8147,-0.3207
878572,0.2441,-0.7676,-0.4929
878588,0.2366,-0.7374,-0.6136
878602,0.2213,-0.7235,-0.6738
878638,0.1852,-0.6742,-0.9401
878696,0.1433,-0.6708,-1.1064
878705,0.1383,-0.6730,-1.1083
878718,0.1334,-0.6752,-1.1056
878734,0.1246,-0.6785,-1.0880
878750,0.1169,-0.6796,-1.0580
878766,0.1102,-0.6780,-1.0194
878776,0.1072,-0.6763,-0.9763
878792,0.1016,-0.6715,-0.9541
878808,0.0962,-0.6655,-0.9099
878824,0.0909,-0.6597,-0.8677
878842,0.0830,-0.6531,-0.8105
878852,0.0804,-0.6517,-0.7936
878868,0.0760,-0.6509,-0.7628
878884,0.0728,-0.6526,-0.7365
878900,0.0712,-0.6567,-0.7139
878927,0.0725,-0.6672,-0.6859
878955,0.0781,-0.6816,-0.6635
878973,0.0867,-0.6980,-0.6450
878988,0.0900,-0.7034,-0.6398
879004,0.0969,-0.7137,-0.6307
879020,0.1036,-0.7231,-0.6241
879038,0.1099,-0.7347,-0.6191
879056,0.1172,-0.7405,-0.6191
879083,0.1216,-0.7457,-0.6243
879092,0.1224,-0.7467,-0.6271
879129,0.1232,-0.7456,-0.6482
879145,0.1224,-0.7437,-0.6582
879162,0.1213,-0.7412,-0.6677
879178,0.1200,-0.7388,-0.6759
879193,0.1193,-0.7375,-0.6794
879209,0.1176,-0.7355,-0.6848
879227,0.1152,-0.7327,-0.6887
879263,0.1124,-0.7295,-0.6864
879277,0.1111,-0.7283,-0.6826
879316,0.1079,-0.7263,-0.6714
879332,0.1062,-0.7261,-0.6697
879348,0.1045,-0.7256,-0.6674
879358,0.1030,-0.7249,-0.6669
879373,0.1024,-0.7245,-0.6674
879389,0.1011,-0.7235,-0.6700
879404,0.0996,-0.7225,-0.6752
879421,0.0981,-0.7214,-0.6831
879437,0.0964,-0.7205,-0.6937
879453,0.0947,-0.7196,-0.7068
879469,0.0933,-0.7186,-0.7217
879479,0.0927,-0.7181,-0.7295
879509,0.0900,-0.7162,-0.7637
879525,0.0874,-0.7139,-0.7847
879541,0.0830,-0.7091,-0.8113
879571,0.0677,-0.6870,-0.8870
879587,0.0582,-0.6707,-0.9337
879602,0.0535,-0.6620,-0.9578
879618,0.0448,-0.6454,-1.0037
879634,0.0385,-0.6317,-1.0417
879650,0.0361,-0.6224,-1.0660
879666,0.0389,-0.6187,-1.0715
879676,0.0426,-0.6188,-1.0543
879687,0.0546,-0.6228,-1.0366
879703,0.0723,-0.6315,-0.9825
879719,0.0947,-0.6444,-0.9050
879785,0.2092,-0.7366,-0.4458
879794,0.2240,-0.7521,-0.3835
879807,0.2698,-0.7843,-0.2637
879823,0.2657,-0.8007,-0.2070
879839,0.2897,-0.8328,-0.1027
879880,0.3296,-0.8992,0.0941
879912,0.3405,-0.9327,0.1804
879927,0.3403,-0.9442,0.2017
879943,0.3376,-0.9532,0.2100
879953,0.3358,-0.9569,0.2096
879969,0.3314,-0.9631,0.2006
879985,0.3271,-0.9675,0.1815
880001,0.3237,-0.9701,0.1536
880019,0.3210,-0.9703,0.1178
880035,0.3191,-0.9677,0.0757
880051,0.3171,-0.9618,0.0281
880067,0.3145,-0.9529,-0.0243
880085,0.3099,-0.9413,-0.1127
880095,0.3026,-0.9270,-0.1433
880111,0.2917,-0.9102,-0.2101
880126,0.2849,-0.8907,-0.2810
880142,0.2684,-0.8804,-0.3177
880172,0.2266,-0.8372,-0.4701
880206,0.1786,-0.7941,-0.6252
880216,0.1663,-0.7828,-0.7017
880232,0.1414,-0.7589,-0.7389
880248,0.1168,-0.7332,-0.8102
880264,0.0927,-0.7063,-0.8750
880282,0.0581,-0.6672,-0.9545
880300,0.0370,-0.6442,-0.9926
880316,0.0183,-0.6249,-1.0176
880332,0.0027,-0.6100,-1.0295
880369,-0.0175,-0.5942,-1.0165
880385,-0.0222,-0.5927,-0.9941
880401,-0.0242,-0.5947,-0.9636
880411,-0.0242,-0.5969,-0.9459
880426,-0.0226,-0.6035,-0.9072
880442,-0.0192,-0.6123,-0.8662
880458,-0.0145,-0.6228,-0.8250
880476,-0.0089,-0.6348,-0.7856
880498,0.0009,-0.6545,-0.7333
880508,0.0044,-0.6615,-0.7180
880524,0.0117,-0.6758,-0.6908
880561,0.0322,-0.7120,-0.6426
880577,0.0410,-0.7260,-0.6307
880592,0.0453,-0.7325,-0.6262
880602,0.0537,-0.7444,-0.6194
880618,0.0613,-0.7540,-0.6151
880632,0.0647,-0.7581,-0.6136
880648,0.0702,-0.7639,-0.6121
880666,0.0740,-0.7671,-0.6127
880682,0.0758,-0.7675,-0.6138
880698,0.0754,-0.7651,-0.6172
880720,0.0714,-0.7574,-0.6261
880779,0.0498,-0.7305,-0.6638
880814,0.0334,-0.7150,-0.6980
880827,0.0310,-0.7133,-0.7046
880843,0.0277,-0.7111,-0.7167
880859,0.0262,-0.7109,-0.7268
880875,0.0270,-0.7126,-0.7344
880885,0.0280,-0.7142,-0.7369
880901,0.0311,-0.7184,-0.7396
880919,0.0353,-0.7240,-0.7386
880935,0.0400,-0.7306,-0.7344
880972,0.0497,-0.7477,-0.7137
880988,0.0515,-0.7533,-0.7047
881004,0.0516,-0.7572,-0.6976
881014,0.0509,-0.7585,-0.6953
881030,0.0480,-0.7596,-0.6941
881046,0.0428,-0.7587,-0.6986
881062,0.0355,-0.7556,-0.7101
881080,0.0260,-0.7506,-0.7294
881113,0.0017,-0.7336,-0.7881
881124,-0.0049,-0.7283,-0.8229
881138,-0.0181,-0.7168,-0.8401
881171,-0.0421,-0.6949,-0.8954
881187,-0.0511,-0.6860,-0.9086
881203,-0.0569,-0.6792,-0.9087
881213,-0.0582,-0.6766,-0.9033
881229,-0.0576,-0.6736,-0.8815
881245,-0.0524,-0.6738,-0.8451
881261,-0.0430,-0.6782,-0.7955
881279,-0.0298,-0.6871,-0.7346
881295,-0.0133,-0.7003,-0.6652
881311,0.0060,-0.7174,-0.5906
881329,0.0386,-0.7491,-0.4766
881366,0.0840,-0.7980,-0.3344
881382,0.1055,-0.8225,-0.2714
881416,0.1438,-0.8667,-0.1666
881426,0.1522,-0.8763,-0.1453
881442,0.1674,-0.8938,-0.1082
881458,0.1803,-0.9095,-0.0782
881474,0.1915,-0.9242,-0.0549
881492,0.2013,-0.9382,-0.0378
881508,0.2101,-0.9519,-0.0266
881524,0.2179,-0.9651,-0.0205
881534,0.2252,-0.9768,-0.0189
881549,0.2286,-0.9819,-0.0195
881579,0.2419,-0.9944,-0.0283
881595,0.2483,-0.9957,-0.0348
881611,0.2544,-0.9944,-0.0425
881621,0.2574,-0.9928,-0.0470
881637,0.2631,-0.9878,-0.0577
881652,0.2681,-0.9801,-0.0721
881668,0.2717,-0.9697,-0.0911
881686,0.2733,-0.9564,-0.1156
881720,0.2670,-0.9227,-0.1846
881739,0.2515,-0.8928,-0.2573
881798,0.1820,-0.8112,-0.5070
881816,0.1582,-0.7880,-0.5938
881832,0.1344,-0.7666,-0.6824
881848,0.1113,-0.7482,-0.7694
881864,0.0892,-0.7324,-0.8516
881882,0.0685,-0.7190,-0.9257
881898,0.0490,-0.7070,-0.9880
881914,0.0305,-0.6959,-1.0355
881929,0.0129,-0.6853,-1.0656
881939,0.0045,-0.6801,-1.0734
881971,-0.0271,-0.6613,-1.0564
881987,-0.0414,-0.6538,-1.0209
882015,-0.0602,-0.6464,-0.9425
882025,-0.0703,-0.6445,-0.8798
882040,-0.0743,-0.6447,-0.8470
882056,-0.0807,-0.6467,-0.7820
882072,-0.0841,-0.6512,-0.7208
882090,-0.0841,-0.6617,-0.6433
882106,-0.0829,-0.6661,-0.6045
882122,-0.0786,-0.6760,-0.5892
882140,-0.0682,-0.6932,-0.5607
882154,-0.0640,-0.6995,-0.5565
882184,-0.0425,-0.7267,-0.5627
882200,-0.0297,-0.7410,-0.5762
882216,-0.0157,-0.7552,-0.5938
882226,-0.0087,-0.7622,-0.6033
882242,0.0055,-0.7755,-0.6227
882258,0.0187,-0.7876,-0.6405
882274,0.0303,-0.7976,-0.6550
882292,0.0397,-0.8052,-0.6649
882320,0.0499,-0.8116,-0.6698
882336,0.0502,-0.8103,-0.6654
882350,0.0492,-0.8086,-0.6619
882380,0.0380,-0.7959,-0.6421
882396,0.0295,-0.7872,-0.6309
882412,0.0205,-0.7781,-0.6201
882422,0.0161,-0.7737,-0.6152
882438,0.0081,-0.7657,-0.6066
882454,0.0018,-0.7598,-0.6000
882470,-0.0023,-0.7562,-0.5957
882488,-0.0043,-0.7551,-0.5938
882504,-0.0040,-0.7562,-0.5940
882520,-0.0023,-0.7592,-0.5957
882536,0.0004,-0.7633,-0.5983
882576,0.0074,-0.7751,-0.6057
882592,0.0090,-0.7788,-0.6082
882628,0.0088,-0.7817,-0.6115
882638,0.0070,-0.7809,-0.6133
882654,0.0055,-0.7799,-0.6163
882669,0.0022,-0.7772,-0.6188
882685,-0.0020,-0.7736,-0.6266
882703,-0.0068,-0.7694,-0.6395
882719,-0.0125,-0.7646,-0.6589
882735,-0.0188,-0.7592,-0.6857
882751,-0.0260,-0.7527,-0.7189
882762,-0.0342,-0.7452,-0.7571
882821,-0.0691,-0.7125,-0.8916
882839,-0.0803,-0.7019,-0.9191
882855,-0.0912,-0.6912,-0.9377
882871,-0.1012,-0.6805,-0.9464
882887,-0.1095,-0.6708,-0.9446
882905,-0.1155,-0.6621,-0.9320
882933,-0.1183,-0.6500,-0.8743
882948,-0.1168,-0.6484,-0.8529
882990,-0.0890,-0.6583,-0.6715
883006,-0.0809,-0.6707,-0.5961
883022,-0.0619,-0.6787,-0.5571
883032,-0.0385,-0.6981,-0.4783
883048,-0.0109,-0.7214,-0.4003
883064,0.0203,-0.7480,-0.3253
883079,0.0371,-0.7623,-0.2894
883097,0.0906,-0.8075,-0.1910
883113,0.1278,-0.8387,-0.1342
883132,0.1648,-0.8700,-0.0850
883141,0.1829,-0.8855,-0.0634
883165,0.2339,-0.9305,-0.0098
883183,0.2644,-0.9591,0.0166
883199,0.2919,-0.9860,0.0358
883239,0.3466,-1.0408,0.0519
883280,0.3793,-1.0662,0.0269
883296,0.3849,-1.0654,0.0073
883314,0.3855,-1.0574,-0.0170
883330,0.3806,-1.0421,-0.0460
883346,0.3700,-1.0197,-0.0800
883362,0.3535,-0.9906,-0.1190
883402,0.2880,-0.8956,-0.2448
883418,0.2542,-0.8533,-0.3093
883433,0.2183,-0.8123,-0.3838
883443,0.2000,-0.7931,-0.4248
883459,0.1646,-0.7589,-0.5135
883475,0.1320,-0.7318,-0.6088
883491,0.1033,-0.7130,-0.7056
883509,0.0790,-0.7028,-0.7982
883537,0.0502,-0.7009,-0.9171
883553,0.0345,-0.7057,-0.9771
883571,0.0148,-0.7157,-1.0322
883581,0.0088,-0.7186,-1.0411
883597,-0.0024,-0.7229,-1.0454
883613,-0.0127,-0.7245,-1.0332
883629,-0.0217,-0.7236,-1.0070
883659,-0.0320,-0.7196,-0.9478
883675,-0.0361,-0.7164,-0.8998
883689,-0.0381,-0.7144,-0.8484
883707,-0.0377,-0.7140,-0.7961
883723,-0.0354,-0.7157,-0.7451
883739,-0.0314,-0.7195,-0.6971
883755,-0.0260,-0.7249,-0.6532
883773,-0.0198,-0.7317,-0.6143
883784,-0.0131,-0.7395,-0.5804
883799,-0.0098,-0.7437,-0.5657
883815,-0.0033,-0.7522,-0.5404
883843,0.0083,-0.7689,-0.5089
883902,0.0251,-0.7927,-0.5144
883920,0.0300,-0.7977,-0.5276
883935,0.0349,-0.8021,-0.5438
883951,0.0394,-0.8058,-0.5619
883967,0.0433,-0.8087,-0.5801
884013,0.0490,-0.8110,-0.6230
884028,0.0488,-0.8102,-0.6274
884046,0.0465,-0.8054,-0.6346
884062,0.0435,-0.8007,-0.6350
884077,0.0415,-0.7979,-0.6342
884093,0.0370,-0.7917,-0.6306
884111,0.0293,-0.7822,-0.6227
884145,0.0194,-0.7698,-0.6118
884161,0.0153,-0.7642,-0.6079
884179,0.0122,-0.7593,-0.6056
884196,0.0101,-0.7557,-0.6051
884212,0.0093,-0.7540,-0.6064
884228,0.0094,-0.7544,-0.6096
884265,0.0125,-0.7606,-0.6198
884281,0.0149,-0.7654,-0.6255
884297,0.0175,-0.7703,-0.6309
884307,0.0199,-0.7747,-0.6349
884323,0.0210,-0.7766,-0.6373
884339,0.0223,-0.7795,-0.6379
884355,0.0228,-0.7812,-0.6381
884373,0.0219,-0.7811,-0.6362
884391,0.0204,-0.7797,-0.6345
884407,0.0187,-0.7775,-0.6328
884423,0.0171,-0.7751,-0.6316
884451,0.0154,-0.7732,-0.6313
884481,0.0135,-0.7748,-0.6395
884497,0.0120,-0.7771,-0.6501
884513,0.0094,-0.7793,-0.6670
884523,0.0077,-0.7800,-0.6781
884539,0.0032,-0.7804,-0.7052
884555,-0.0033,-0.7787,-0.7389
884571,-0.0120,-0.7744,-0.7781
884589,-0.0232,-0.7670,-0.8209
884599,-0.0294,-0.7620,-0.8429
884615,-0.0431,-0.7491,-0.8864
884631,-0.0566,-0.7332,-0.9255
884647,-0.0686,-0.7150,-0.9564
884677,-0.0818,-0.6808,-0.9769
884693,-0.0803,-0.6691,-0.9602
884707,-0.0773,-0.6654,-0.9443
884725,-0.0574,-0.6653,-0.8661
884753,-0.0221,-0.6816,-0.7467
884769,0.0085,-0.7009,-0.6490
884787,0.0428,-0.7252,-0.5416
884806,0.0969,-0.7675,-0.3717
884822,0.1147,-0.7969,-0.2594
884838,0.1490,-0.8113,-0.2052
884896,0.2577,-0.9075,0.1328
884914,0.2782,-0.9275,0.1844
884928,0.2878,-0.9375,0.2051
884944,0.3060,-0.9581,0.2367
884960,0.3232,-0.9795,0.2557
884978,0.3472,-1.0118,0.2617
884993,0.3546,-1.0219,0.2579
885011,0.3739,-1.0464,0.2296
885026,0.3789,-1.0515,0.2147
885058,0.3881,-1.0482,0.1290
885090,0.3734,-0.9987,0.0022
885106,0.3556,-0.9565,-0.0771
885122,0.3304,-0.9047,-0.1677
885132,0.3152,-0.8759,-0.2174
885151,0.2614,-0.7833,-0.3823
885160,0.2416,-0.7524,-0.4421
885176,0.2018,-0.6940,-0.5676
885200,0.1462,-0.6234,-0.7650
885215,0.1150,-0.5925,-0.8975
885226,0.1016,-0.5825,-0.9620
885242,0.0792,-0.5732,-1.0839
885279,0.0509,-0.5907,-1.2726
885295,0.0436,-0.6121,-1.3259
885311,0.0400,-0.6378,-1.3456
885321,0.0394,-0.6649,-1.3303
885356,0.0455,-0.7139,-1.2028
885372,0.0503,-0.7323,-1.1011
885382,0.0527,-0.7397,-1.0441
885398,0.0573,-0.7510,-0.9229
885414,0.0609,-0.7577,-0.7997
885432,0.0632,-0.7607,-0.6829
885469,0.0651,-0.7593,-0.4620
885484,0.0651,-0.7587,-0.4342
885500,0.0651,-0.7584,-0.3964
885518,0.0651,-0.7616,-0.3807
885533,0.0652,-0.7638,-0.3851
885549,0.0657,-0.7694,-0.4053
885565,0.0665,-0.7761,-0.4366
885583,0.0680,-0.7863,-0.4949
885599,0.0684,-0.7891,-0.5347
885615,0.0688,-0.7938,-0.5536
885636,0.0682,-0.7975,-0.6024
885686,0.0615,-0.7939,-0.6526
885702,0.0588,-0.7905,-0.6566
885718,0.0563,-0.7865,-0.6561
885734,0.0542,-0.7826,-0.6522
885750,0.0525,-0.7791,-0.6460
885766,0.0509,-0.7764,-0.6383
885776,0.0503,-0.7753,-0.6343
885792,0.0490,-0.7739,-0.6260
885808,0.0480,-0.7734,-0.6182
885824,0.0475,-0.7738,-0.6112
885835,0.0474,-0.7742,-0.6080
885894,0.0494,-0.7822,-0.5907
885912,0.0498,-0.7843,-0.5890
885928,0.0498,-0.7855,-0.5891
885944,0.0491,-0.7856,-0.5922
885972,0.0460,-0.7833,-0.6055
885982,0.0444,-0.7819,-0.6130
885998,0.0400,-0.7780,-0.6343
886014,0.0339,-0.7727,-0.6644
886030,0.0259,-0.7664,-0.7036
886040,0.0212,-0.7627,-0.7263
886070,-0.0017,-0.7451,-0.8309
886086,-0.0150,-0.7336,-0.8851
886102,-0.0288,-0.7200,-0.9346
886115,-0.0425,-0.7043,-0.9747
886130,-0.0488,-0.6962,-0.9902
886146,-0.0601,-0.6799,-1.0096
886162,-0.0684,-0.6652,-1.0126
886180,-0.0723,-0.6495,-0.9847
886196,-0.0707,-0.6471,-0.9673
886212,-0.0629,-0.6472,-0.9213
886227,-0.0487,-0.6552,-0.8627
886267,0.0117,-0.7068,-0.6796
886295,0.0768,-0.7684,-0.5186
886312,0.1110,-0.8007,-0.4401
886328,0.1438,-0.8318,-0.3652
886343,0.1594,-0.8464,-0.3295
886359,0.1877,-0.8734,-0.2620
886377,0.2212,-0.9067,-0.1705
886392,0.2295,-0.9156,-0.1426
886408,0.2417,-0.9304,-0.0902
886424,0.2480,-0.9409,-0.0424
886441,0.2491,-0.9479,0.0007
886451,0.2461,-0.9525,0.0382
886467,0.2402,-0.9559,0.0692
886482,0.2367,-0.9574,0.0817
886498,0.2294,-0.9607,0.1000
886528,0.2183,-0.9681,0.1061
886544,0.2158,-0.9718,0.0934
886560,0.2157,-0.9749,0.0710
886570,0.2164,-0.9760,0.0566
886602,0.2234,-0.9757,-0.0171
886618,0.2283,-0.9720,-0.0608
886636,0.2333,-0.9656,-0.1072
886654,0.2374,-0.9558,-0.1556
886670,0.2400,-0.9420,-0.2064
886686,0.2400,-0.9233,-0.2610
886723,0.2260,-0.8506,-0.4286
886738,0.2146,-0.8114,-0.5143
886754,0.2004,-0.7687,-0.6122
886772,0.1838,-0.7255,-0.7208
886788,0.1655,-0.6853,-0.8363
886804,0.1458,-0.6511,-0.9524
886820,0.1248,-0.6255,-1.0618
886838,0.1027,-0.6093,-1.1565
886857,0.0795,-0.6021,-1.2299
886873,0.0555,-0.6025,-1.2766
886901,0.0085,-0.6185,-1.2802
886959,-0.0532,-0.6588,-1.0369
886976,-0.0638,-0.6689,-0.9340
886992,-0.0714,-0.6780,-0.8287
887008,-0.0762,-0.6860,-0.7277
887024,-0.0786,-0.6936,-0.6364
887042,-0.0792,-0.7008,-0.5590
887060,-0.0787,-0.7080,-0.4980
887076,-0.0776,-0.7155,-0.4543
887092,-0.0762,-0.7234,-0.4276
887129,-0.0728,-0.7443,-0.4244
887145,-0.0707,-0.7484,-0.4321
887164,-0.0668,-0.7606,-0.4657
887183,-0.0636,-0.7681,-0.4930
887217,-0.0568,-0.7811,-0.5485
887235,-0.0537,-0.7865,-0.5731
887249,-0.0509,-0.7909,-0.5950
887270,-0.0474,-0.7950,-0.6227
887286,-0.0458,-0.7959,-0.6387
887316,-0.0448,-0.7943,-0.6613
887332,-0.0454,-0.7914,-0.6768
887348,-0.0474,-0.7870,-0.6935
887358,-0.0490,-0.7843,-0.7117
887374,-0.0531,-0.7780,-0.7211
887390,-0.0587,-0.7704,-0.7404
887406,-0.0652,-0.7620,-0.7590
887424,-0.0756,-0.7485,-0.7814
887440,-0.0789,-0.7400,-0.7896
887456,-0.0848,-0.7361,-0.7909
887474,-0.0911,-0.7275,-0.7811
887511,-0.0920,-0.7269,-0.7354
887539,-0.0830,-0.7416,-0.6635
887557,-0.0756,-0.7539,-0.6254
887573,-0.0668,-0.7687,-0.5907
887589,-0.0576,-0.7849,-0.5619
887605,-0.0487,-0.8019,-0.5409
887623,-0.0410,-0.8182,-0.5282
887639,-0.0349,-0.8328,-0.5231
887655,-0.0304,-0.8445,-0.5234
887671,-0.0276,-0.8528,-0.5259
887681,-0.0266,-0.8558,-0.5266
887711,-0.0247,-0.8615,-0.5150
887727,-0.0233,-0.8618,-0.4965
887742,-0.0221,-0.8618,-0.4836
887759,-0.0177,-0.8625,-0.4331
887775,-0.0099,-0.8634,-0.4131
887791,0.0021,-0.8671,-0.3704
887807,0.0179,-0.8743,-0.3265
887817,0.0372,-0.8859,-0.2844
887845,0.0703,-0.9127,-0.2299
887861,0.0929,-0.9362,-0.2020
887879,0.1144,-0.9623,-0.1825
887890,0.1334,-0.9886,-0.1713
887906,0.1416,-1.0011,-0.1687
887922,0.1549,-1.0228,-0.1689
887988,0.1609,-1.0190,-0.2130
888005,0.1503,-0.9908,-0.2194
888020,0.1466,-0.9738,-0.2203
888036,0.1401,-0.9352,-0.2168
888052,0.1359,-0.8936,-0.2048
888070,0.1345,-0.8339,-0.1703
888086,0.1371,-0.8164,-0.1550
888096,0.1437,-0.7877,-0.1206
888112,0.1544,-0.7693,-0.0840
888148,0.1869,-0.7701,-0.0239
888178,0.2275,-0.8164,-0.0181
888194,0.2462,-0.8469,-0.0488
888210,0.2605,-0.8745,-0.1068
888220,0.2651,-0.8854,-0.1464
888236,0.2679,-0.8981,-0.2457
888252,0.2611,-0.8955,-0.3688
888266,0.2539,-0.8879,-0.5094
888287,0.2181,-0.8425,-0.6591
888298,0.2023,-0.8212,-0.7343
888314,0.1661,-0.7728,-0.8789
888330,0.1267,-0.7219,-1.0077
888378,0.0166,-0.6056,-1.2271
888394,-0.0101,-0.5887,-1.2345
888412,-0.0295,-0.5835,-1.2113
888428,-0.0414,-0.5881,-1.1621
888460,-0.0442,-0.6173,-1.0109
888478,-0.0372,-0.6376,-0.9225
888493,-0.0266,-0.6593,-0.8347
888503,-0.0204,-0.6702,-0.7927
888519,-0.0070,-0.6914,-0.7158
888535,0.0070,-0.7111,-0.6508
888565,0.0322,-0.7418,-0.5635
888581,0.0426,-0.7522,-0.5411
888597,0.0509,-0.7594,-0.5312
888607,0.0542,-0.7618,-0.5304
888623,0.0593,-0.7650,-0.5350
888639,0.0625,-0.7664,-0.5464
888655,0.0638,-0.7665,-0.5625
888673,0.0637,-0.7657,-0.5811
888689,0.0627,-0.7644,-0.6006
888707,0.0609,-0.7628,-0.6194
888723,0.0587,-0.7611,-0.6362
888780,0.0490,-0.7542,-0.6710
888795,0.0464,-0.7518,-0.6743
888805,0.0453,-0.7506,-0.6752
888821,0.0437,-0.7483,-0.6759
888837,0.0428,-0.7460,-0.6758
888853,0.0427,-0.7438,-0.6754
888871,0.0432,-0.7421,-0.6754
888887,0.0441,-0.7410,-0.6758
888903,0.0449,-0.7404,-0.6769
888914,0.0453,-0.7401,-0.6791
888979,0.0392,-0.7365,-0.7063
888995,0.0372,-0.7339,-0.7183
889011,0.0326,-0.7308,-0.7317
889027,0.0267,-0.7291,-0.7388
889063,0.0114,-0.7212,-0.7725
889073,0.0085,-0.7200,-0.7784
889089,0.0035,-0.7184,-0.7891
889105,-0.0005,-0.7177,-0.7983
889115,-0.0022,-0.7177,-0.8025
889131,-0.0049,-0.7183,-0.8103
889161,-0.0090,-0.7235,-0.8263
889180,-0.0115,-0.7286,-0.8347
889189,-0.0128,-0.7316,-0.8386
889213,-0.0176,-0.7411,-0.8469
889229,-0.0205,-0.7465,-0.8467
889245,-0.0222,-0.7502,-0.8390
889261,-0.0222,-0.7521,-0.8217
889271,-0.0214,-0.7523,-0.8088
889287,-0.0181,-0.7521,-0.7738
889302,-0.0126,-0.7516,-0.7264
889320,-0.0048,-0.7518,-0.6674
889357,0.0234,-0.7623,-0.4796
889385,0.0442,-0.7781,-0.3516
889406,0.0648,-0.8003,-0.2242
889422,0.0780,-0.8177,-0.1458
889438,0.0905,-0.8368,-0.0758
889454,0.1024,-0.8573,-0.0167
889464,0.1084,-0.8682,0.0082
889480,0.1205,-0.8910,0.0483
889495,0.1333,-0.9154,0.0752
889509,0.1400,-0.9282,0.0837
889549,0.1765,-0.9924,0.0808
889565,0.1908,-1.0139,0.0618
889581,0.2035,-1.0298,0.0359
889591,0.2089,-1.0350,0.0210
889607,0.2169,-1.0398,-0.0111
889623,0.2209,-1.0366,-0.0443
889639,0.2205,-1.0261,-0.0771
889657,0.2157,-1.0092,-0.1085
889693,0.1904,-0.9458,-0.1810
889709,0.1766,-0.9158,-0.2092
889719,0.1691,-0.9005,-0.2236
889729,0.1611,-0.8853,-0.2385
889745,0.1444,-0.8557,-0.2708
889761,0.1271,-0.8275,-0.3083
889777,0.1102,-0.8010,-0.3546
889807,0.0818,-0.7520,-0.4834
889821,0.0763,-0.7285,-0.5668
889837,0.0671,-0.7170,-0.6122
889855,0.0579,-0.6848,-0.7561
889871,0.0542,-0.6665,-0.8517
889886,0.0529,-0.6588,-0.8972
889902,0.0510,-0.6469,-0.9805
889920,0.0491,-0.6392,-1.0784
889931,0.0485,-0.6393,-1.1023
889947,0.0470,-0.6436,-1.1353
889963,0.0452,-0.6521,-1.1477
890053,0.0287,-0.7177,-0.9053
890063,0.0275,-0.7212,-0.8691
890079,0.0258,-0.7264,-0.7976
890095,0.0253,-0.7294,-0.7308
890111,0.0261,-0.7308,-0.6721
890129,0.0283,-0.7317,-0.6239
890139,0.0298,-0.7322,-0.6041
890155,0.0332,-0.7339,-0.5735
890171,0.0370,-0.7366,-0.5543
890187,0.0405,-0.7402,-0.5454
890217,0.0463,-0.7491,-0.5509
890233,0.0479,-0.7537,-0.5612
890249,0.0486,-0.7576,-0.5735
890259,0.0485,-0.7592,-0.5800
890275,0.0476,-0.7616,-0.5925
890303,0.0444,-0.7626,-0.6090
890321,0.0400,-0.7609,-0.6221
890340,0.0369,-0.7587,-0.6293
890354,0.0343,-0.7562,-0.6355
890370,0.0326,-0.7542,-0.6411
890407,0.0328,-0.7520,-0.6506
890423,0.0345,-0.7522,-0.6544
890439,0.0369,-0.7532,-0.6571
890449,0.0382,-0.7539,-0.6581
890465,0.0408,-0.7557,-0.6589
890481,0.0432,-0.7579,-0.6586
890496,0.0453,-0.7601,-0.6570
890517,0.0475,-0.7625,-0.6525
890533,0.0479,-0.7631,-0.6481
890551,0.0474,-0.7626,-0.6427
890567,0.0458,-0.7610,-0.6370
890597,0.0419,-0.7572,-0.6292
890631,0.0363,-0.7506,-0.6246
890641,0.0344,-0.7477,-0.6255
890657,0.0334,-0.7456,-0.6289
890673,0.0336,-0.7448,-0.6345
890688,0.0338,-0.7449,-0.6383
890706,0.0352,-0.7467,-0.6536
890722,0.0358,-0.7483,-0.6680
890737,0.0356,-0.7489,-0.6766
890755,0.0328,-0.7495,-0.7111
890792,0.0210,-0.7450,-0.7808
890808,0.0114,-0.7394,-0.8262
890824,-0.0001,-0.7308,-0.8762
890841,-0.0125,-0.7192,-0.9270
890857,-0.0248,-0.7053,-0.9736
890873,-0.0363,-0.6899,-1.0114
890889,-0.0460,-0.6742,-1.0355
890899,-0.0498,-0.6665,-1.0415
890927,-0.0555,-0.6423,-1.0193
890943,-0.0514,-0.6367,-0.9797
891012,0.0096,-0.6890,-0.6731
891022,0.0201,-0.7040,-0.6248
891038,0.0416,-0.7373,-0.5272
891054,0.0630,-0.7729,-0.4314
891070,0.0837,-0.8079,-0.3408
891088,0.1035,-0.8398,-0.2584
891104,0.1226,-0.8669,-0.1859
891120,0.1406,-0.8887,-0.1237
891136,0.1578,-0.9052,-0.0714
891154,0.1742,-0.9172,-0.0277
891164,0.1891,-0.9259,0.0093
891179,0.1960,-0.9294,0.0258
891198,0.2146,-0.9390,0.0692
891207,0.2201,-0.9420,0.0820
891260,0.2495,-0.9659,0.1379
891278,0.2653,-0.9806,0.1450
891294,0.2710,-0.9852,0.1377
891310,0.2827,-0.9929,0.1299
891326,0.2939,-0.9968,0.1047
891339,0.3038,-0.9949,0.0662
891349,0.3077,-0.9911,0.0417
891367,0.3126,-0.9772,-0.0177
891383,0.3129,-0.9536,-0.0920
891399,0.3076,-0.9203,-0.1827
891436,0.2706,-0.8019,-0.4902
891452,0.2468,-0.7477,-0.6426
891468,0.2186,-0.6952,-0.8031
891481,0.2031,-0.6709,-0.8834
891497,0.1699,-0.6283,-1.0365
891513,0.1346,-0.5961,-1.1696
891547,0.0632,-0.5676,-1.3359
891557,0.0299,-0.5702,-1.3578
891575,0.0004,-0.5815,-1.3383
891591,-0.0244,-0.5989,-1.2816
891607,-0.0432,-0.6194,-1.1959
891644,-0.0616,-0.6609,-0.9757
891660,-0.0615,-0.6793,-0.8610
891676,-0.0563,-0.6953,-0.7548
891686,-0.0520,-0.7026,-0.7068
891702,-0.0409,-0.7156,-0.6241
891718,-0.0275,-0.7271,-0.5610
891734,-0.0127,-0.7371,-0.5183
891752,0.0022,-0.7462,-0.4949
891768,0.0166,-0.7543,-0.4882
891778,0.0297,-0.7616,-0.4948
891794,0.0410,-0.7682,-0.5110
891809,0.0458,-0.7711,-0.5216
891838,0.0592,-0.7803,-0.5708
891873,0.0627,-0.7844,-0.6182
891883,0.0623,-0.7847,-0.6284
891899,0.0597,-0.7838,-0.6467
891915,0.0553,-0.7816,-0.6614
891931,0.0496,-0.7782,-0.6724
891949,0.0391,-0.7716,-0.6824
891965,0.0353,-0.7692,-0.6849
891987,0.0239,-0.7612,-0.6848
892003,0.0165,-0.7557,-0.6825
892061,-0.0072,-0.7360,-0.6685
892078,-0.0139,-0.7306,-0.6653
892094,-0.0205,-0.7256,-0.6633
892110,-0.0270,-0.7209,-0.6631
892126,-0.0331,-0.7167,-0.6649
892144,-0.0386,-0.7126,-0.6688
892172,-0.0466,-0.7059,-0.6830
892190,-0.0490,-0.7034,-0.6931
892227,-0.0502,-0.7001,-0.7273
892243,-0.0497,-0.7001,-0.7356
892259,-0.0483,-0.7006,-0.7532
892269,-0.0465,-0.7014,-0.7719
892285,-0.0443,-0.7023,-0.7905
892300,-0.0431,-0.7024,-0.7994
892316,-0.0405,-0.7021,-0.8157
892334,-0.0354,-0.6995,-0.8326
892349,-0.0332,-0.6982,-0.8357
892363,-0.0278,-0.6960,-0.8368
892379,-0.0209,-0.6954,-0.8307
892419,0.0062,-0.7087,-0.7810
892435,0.0220,-0.7225,-0.7479
892451,0.0408,-0.7413,-0.7085
892481,0.0863,-0.7902,-0.6146
892497,0.0989,-0.8174,-0.5621
892513,0.1245,-0.8309,-0.5348
892523,0.1499,-0.8572,-0.4789
892539,0.1735,-0.8812,-0.4219
892555,0.1940,-0.9020,-0.3652
892569,0.2028,-0.9110,-0.3374
892590,0.2222,-0.9312,-0.2583
892601,0.2262,-0.9357,-0.2340
892617,0.2310,-0.9418,-0.1892
892633,0.2317,-0.9447,-0.1499
892670,0.2205,-0.9453,-0.0759
892686,0.2135,-0.9454,-0.0555
892701,0.2100,-0.9457,-0.0472
892711,0.2039,-0.9469,-0.0345
892724,0.2014,-0.9480,-0.0300
892739,0.1984,-0.9509,-0.0245
892753,0.1980,-0.9552,-0.0229
892780,0.2028,-0.9637,-0.0267
892790,0.2057,-0.9670,-0.0293
892808,0.2131,-0.9742,-0.0356
892823,0.2217,-0.9817,-0.0431
892837,0.2303,-0.9885,-0.0510
892873,0.2426,-0.9946,-0.0677
892888,0.2444,-0.9905,-0.0780
892903,0.2426,-0.9794,-0.0925
892919,0.2371,-0.9600,-0.1151
892934,0.2275,-0.9318,-0.1495
892946,0.2212,-0.9142,-0.1720
892961,0.2051,-0.8733,-0.2286
892975,0.1849,-0.8265,-0.3011
892985,0.1736,-0.8021,-0.3430
893000,0.1493,-0.7542,-0.4368
893011,0.1366,-0.7316,-0.4880
893026,0.1115,-0.6910,-0.5972
893040,0.0876,-0.6583,-0.7117
893097,0.0251,-0.6038,-1.0742
893130,0.0005,-0.6035,-1.1815
893140,-0.0050,-0.6060,-1.1917
893155,-0.0151,-0.6134,-1.1915
893167,-0.0199,-0.6182,-1.1815
893182,-0.0283,-0.6290,-1.1440
893196,-0.0352,-0.6411,-1.0868
893217,-0.0400,-0.6532,-1.0154
893227,-0.0428,-0.6649,-0.9358
893240,-0.0435,-0.6703,-0.8948
893255,-0.0435,-0.6802,-0.8140
893294,-0.0383,-0.6975,-0.6445
893309,-0.0355,-0.7017,-0.5973
893322,-0.0341,-0.7032,-0.5786
893338,-0.0315,-0.7057,-0.5513
893353,-0.0291,-0.7076,-0.5365
893367,-0.0269,-0.7094,-0.5330
893379,-0.0259,-0.7102,-0.5349
893394,-0.0237,-0.7120,-0.5449
893404,-0.0226,-0.7131,-0.5525
893435,-0.0176,-0.7185,-0.5931
893446,-0.0161,-0.7201,-0.6047
893461,-0.0127,-0.7235,-0.6277
893501,-0.0005,-0.7328,-0.6775
893517,0.0062,-0.7366,-0.6920
893534,0.0134,-0.7405,-0.7029
893548,0.0208,-0.7448,-0.7100
893563,0.0276,-0.7493,-0.7133
893576,0.0308,-0.7516,-0.7136
893591,0.0364,-0.7559,-0.7122
893603,0.0408,-0.7595,-0.7079
893616,0.0426,-0.7610,-0.7051
893631,0.0450,-0.7628,-0.6978
893651,0.0460,-0.7632,-0.6844
893692,0.0419,-0.7576,-0.6604
893707,0.0380,-0.7557,-0.6561
893734,0.0286,-0.7469,-0.6437
893744,0.0262,-0.7446,-0.6421
893758,0.0221,-0.7406,-0.6410
893772,0.0203,-0.7389,-0.6414
893786,0.0168,-0.7366,-0.6445
893800,0.0142,-0.7358,-0.6508
893810,0.0131,-0.7360,-0.6550
893825,0.0114,-0.7365,-0.6665
893837,0.0106,-0.7368,-0.6735
893848,0.0092,-0.7368,-0.6902
893862,0.0082,-0.7365,-0.6998
893893,0.0009,-0.7302,-0.7473
893907,-0.0056,-0.7240,-0.7764
893922,-0.0137,-0.7159,-0.8088
893937,-0.0182,-0.7112,-0.8262
893952,-0.0277,-0.7012,-0.8621
893965,-0.0371,-0.6908,-0.8976
893979,-0.0455,-0.6815,-0.9299
893993,-0.0492,-0.6777,-0.9440
894003,-0.0524,-0.6724,-0.9661
894038,-0.0582,-0.6727,-0.9778
894056,-0.0547,-0.6790,-0.9633
894116,-0.0171,-0.7294,-0.7894
894133,-0.0026,-0.7494,-0.7089
894147,0.0118,-0.7699,-0.6202
894162,0.0258,-0.7898,-0.5281
894176,0.0387,-0.8083,-0.4371
894189,0.0448,-0.8171,-0.3934
894199,0.0503,-0.8254,-0.2891
894214,0.0599,-0.8409,-0.2749
894229,0.0670,-0.8551,-0.2094
894243,0.0710,-0.8678,-0.1565
894283,0.0671,-0.8925,-0.0814
894296,0.0641,-0.8961,-0.0752
894311,0.0559,-0.9019,-0.0697
894321,0.0509,-0.9042,-0.0697
894348,0.0271,-0.9098,-0.0817
894361,0.0208,-0.9105,-0.0862
894376,0.0089,-0.9114,-0.0957
894386,0.0038,-0.9115,-0.1002
894401,-0.0032,-0.9110,-0.1084
894414,-0.0051,-0.9103,-0.1143
894427,-0.0038,-0.9102,-0.1158
894442,0.0037,-0.9104,-0.1160
894452,0.0098,-0.9109,-0.1143
894462,0.0267,-0.9128,-0.1075
894475,0.0376,-0.9141,-0.1028
894490,0.0635,-0.9167,-0.0923
894504,0.0940,-0.9191,-0.0837
894535,0.1627,-0.9189,-0.0909
894550,0.1796,-0.9170,-0.1010
894564,0.2102,-0.9091,-0.1337
894580,0.2340,-0.8943,-0.1849
894594,0.2487,-0.8718,-0.2565
894607,0.2522,-0.8578,-0.2999
894622,0.2516,-0.8250,-0.4020
894649,0.2338,-0.7681,-0.6559
894659,0.2133,-0.7291,-0.7256
894669,0.2012,-0.7103,-0.7958
894684,0.1747,-0.6760,-0.9327
894696,0.1608,-0.6611,-0.9968
894711,0.1329,-0.6372,-1.1102
894745,0.0825,-0.6157,-1.2505
894760,0.0629,-0.6178,-1.2689
894774,0.0483,-0.6265,-1.2531
894784,0.0433,-0.6327,-1.2334
894799,0.0376,-0.6477,-1.1738
894814,0.0375,-0.6646,-1.0934
894827,0.0393,-0.6732,-1.0479
894844,0.0460,-0.6902,-0.9510
894858,0.0555,-0.7061,-0.8533
894876,0.0668,-0.7201,-0.7615
894890,0.0784,-0.7319,-0.6807
894929,0.1044,-0.7526,-0.5463
894967,0.1179,-0.7628,-0.5099
894977,0.1219,-0.7666,-0.5107
894992,0.1233,-0.7683,-0.5148
895006,0.1248,-0.7712,-0.5284
895020,0.1249,-0.7736,-0.5471
895032,0.1245,-0.7744,-0.5575
895049,0.1234,-0.7754,-0.5793
895065,0.1218,-0.7753,-0.6007
895087,0.1190,-0.7734,-0.6285
895155,0.1124,-0.7690,-0.6562
895172,0.1112,-0.7694,-0.6527
895187,0.1099,-0.7701,-0.6464
895201,0.1082,-0.7711,-0.6382
895215,0.1058,-0.7717,-0.6290
895233,0.1029,-0.7719,-0.6200
895269,0.0948,-0.7690,-0.6068
895287,0.0903,-0.7659,-0.6041
895326,0.0793,-0.7545,-0.6095
895341,0.0757,-0.7499,-0.6152
895355,0.0725,-0.7462,-0.6219
895372,0.0702,-0.7438,-0.6289
895387,0.0685,-0.7428,-0.6355
895400,0.0680,-0.7429,-0.6385
895415,0.0675,-0.7443,-0.6436
895429,0.0676,-0.7466,-0.6469
895439,0.0680,-0.7480,-0.6477
895453,0.0690,-0.7511,-0.6477
895466,0.0697,-0.7527,-0.6469
895481,0.0714,-0.7556,-0.6436
895491,0.0724,-0.7570,-0.6411
895522,0.0765,-0.7612,-0.6285
895537,0.0786,-0.7628,-0.6223
895564,0.0815,-0.7648,-0.6160
895574,0.0834,-0.7660,-0.6146
895589,0.0844,-0.7666,-0.6149
895603,0.0861,-0.7677,-0.6173
895617,0.0879,-0.7689,-0.6217
895629,0.0887,-0.7695,-0.6244
895640,0.0902,-0.7709,-0.6304
895653,0.0908,-0.7715,-0.6334
895668,0.0916,-0.7725,-0.6399
895682,0.0914,-0.7732,-0.6465
895692,0.0909,-0.7732,-0.6501
895723,0.0848,-0.7709,-0.6691
895739,0.0790,-0.7678,-0.6833
895752,0.0753,-0.7660,-0.6923
895765,0.0663,-0.7615,-0.7148
895779,0.0551,-0.7562,-0.7445
895792,0.0487,-0.7534,-0.7622
895807,0.0349,-0.7471,-0.8029
895821,0.0205,-0.7399,-0.8494
895831,0.0134,-0.7360,-0.8739
895866,-0.0105,-0.7185,-0.9701
895881,-0.0182,-0.7086,-1.0096
895922,-0.0183,-0.6821,-1.0459
895937,-0.0095,-0.6725,-1.0251
895951,0.0043,-0.6654,-0.9807
895971,0.0223,-0.6626,-0.9121
895986,0.0437,-0.6659,-0.8212
896000,0.0674,-0.6760,-0.7113
896013,0.0798,-0.6836,-0.6510
896023,0.0928,-0.6927,-0.5880
896037,0.1193,-0.7148,-0.4574
896052,0.1466,-0.7411,-0.3262
896066,0.1743,-0.7701,-0.2001
896083,0.2018,-0.8015,-0.0839
896102,0.2283,-0.8347,0.0192
896117,0.2527,-0.8693,0.1068
896130,0.2743,-0.9043,0.1779
896196,0.3235,-1.0183,0.2874
896230,0.3219,-1.0342,0.2451
896240,0.3185,-1.0325,0.2260
896255,0.3087,-1.0222,0.1782
896267,0.3022,-1.0138,0.1500
896282,0.2870,-0.9906,0.0853
896296,0.2687,-0.9597,0.0106
896329,0.2245,-0.8798,-0.1663
896344,0.1993,-0.8345,-0.2670
896357,0.1863,-0.8114,-0.3199
896367,0.1731,-0.7883,-0.4371
896382,0.1466,-0.7437,-0.4877
896396,0.1211,-0.7025,-0.6036
896410,0.0975,-0.6671,-0.7195
896427,0.0769,-0.6393,-0.8313
896441,0.0599,-0.6202,-0.9348
896455,0.0529,-0.6140,-0.9819
896468,0.0416,-0.6082,-1.0645
896483,0.0337,-0.6100,-1.1285
896493,0.0309,-0.6133,-1.1528
896534,0.0231,-0.6432,-1.1927
896549,0.0217,-0.6566,-1.1730
896580,0.0194,-0.6768,-1.0867
896595,0.0187,-0.6799,-1.0580
896610,0.0172,-0.6837,-0.9954
896620,0.0165,-0.6846,-0.9624
896634,0.0148,-0.6847,-0.8955
896649,0.0133,-0.6836,-0.8302
896663,0.0121,-0.6821,-0.7694
896676,0.0116,-0.6815,-0.7415
896686,0.0114,-0.6812,-0.6917
896701,0.0110,-0.6810,-0.6700
896718,0.0109,-0.6823,-0.6337
896733,0.0109,-0.6848,-0.6066
896770,0.0109,-0.6967,-0.5735
896783,0.0110,-0.6997,-0.5717
896798,0.0114,-0.7057,-0.5714
896838,0.0153,-0.7184,-0.5826
896853,0.0184,-0.7220,-0.5886
896867,0.0226,-0.7250,-0.5944
896877,0.0251,-0.7263,-0.5970
896892,0.0309,-0.7292,-0.6021
896905,0.0342,-0.7308,-0.6045
896926,0.0454,-0.7375,-0.6122
896965,0.0675,-0.7542,-0.6295
896979,0.0721,-0.7577,-0.6338
896994,0.0811,-0.7643,-0.6433
897011,0.0895,-0.7699,-0.6534
897026,0.0966,-0.7739,-0.6638
897040,0.1021,-0.7760,-0.6738
897052,0.1041,-0.7764,-0.6785
897067,0.1067,-0.7756,-0.6869
897077,0.1074,-0.7745,-0.6906
897092,0.1073,-0.7711,-0.6962
897107,0.1057,-0.7664,-0.6997
897134,0.1010,-0.7576,-0.7007
897197,0.0848,-0.7369,-0.6854
897207,0.0834,-0.7355,-0.6827
897221,0.0809,-0.7335,-0.6777
897247,0.0789,-0.7327,-0.6713
897262,0.0782,-0.7330,-0.6680
897278,0.0780,-0.7339,-0.6655
897293,0.0782,-0.7349,-0.6638
897306,0.0785,-0.7354,-0.6633
897321,0.0791,-0.7362,-0.6628
897337,0.0798,-0.7367,-0.6630
897347,0.0802,-0.7368,-0.6632
897361,0.0808,-0.7367,-0.6638
897376,0.0813,-0.7362,-0.6647
897388,0.0814,-0.7358,-0.6652
897420,0.0813,-0.7338,-0.6667
897447,0.0807,-0.7314,-0.6677
897464,0.0800,-0.7305,-0.6680
897478,0.0796,-0.7300,-0.6680
897492,0.0791,-0.7295,-0.6678
897507,0.0786,-0.7292,-0.6677
897519,0.0784,-0.7294,-0.6676
897530,0.0780,-0.7297,-0.6672
897548,0.0780,-0.7301,-0.6669
897563,0.0782,-0.7307,-0.6665
897576,0.0785,-0.7312,-0.6664
897614,0.0811,-0.7345,-0.6670
897629,0.0826,-0.7365,-0.6680
897641,0.0834,-0.7375,-0.6687
897658,0.0848,-0.7396,-0.6703
897672,0.0861,-0.7416,-0.6720
897687,0.0868,-0.7430,-0.6736
897699,0.0869,-0.7435,-0.6742
897714,0.0865,-0.7438,-0.6748
897724,0.0861,-0.7437,-0.6747
897751,0.0823,-0.7405,-0.6711
897761,0.0809,-0.7391,-0.6694
897776,0.0779,-0.7360,-0.6655
897807,0.0736,-0.7288,-0.6577
897822,0.0713,-0.7273,-0.6564
897837,0.0698,-0.7247,-0.6550
897849,0.0695,-0.7234,-0.6555
897862,0.0695,-0.7231,-0.6565
897877,0.0703,-0.7234,-0.6595
897892,0.0718,-0.7246,-0.6636
897908,0.0736,-0.7266,-0.6677
897923,0.0758,-0.7289,-0.6711
897936,0.0770,-0.7302,-0.6725
897951,0.0793,-0.7332,-0.6740
897968,0.0818,-0.7363,-0.6737
897999,0.0867,-0.7430,-0.6693
898013,0.0887,-0.7462,-0.6656
898026,0.0895,-0.7477,-0.6636
898054,0.0908,-0.7517,-0.6552
898064,0.0906,-0.7522,-0.6532
898079,0.0896,-0.7523,-0.6500
898091,0.0890,-0.7521,-0.6488
898106,0.0872,-0.7509,-0.6471
898120,0.0850,-0.7488,-0.6467
898130,0.0836,-0.7476,-0.6469
898144,0.0811,-0.7448,-0.6481
898157,0.0797,-0.7432,-0.6489
898169,0.0771,-0.7401,-0.6512
898182,0.0760,-0.7386,-0.6526
898243,0.0731,-0.7322,-0.6635
898260,0.0742,-0.7327,-0.6652
898274,0.0760,-0.7338,-0.6663
898288,0.0771,-0.7346,-0.6665
898302,0.0796,-0.7368,-0.6669
898316,0.0822,-0.7395,-0.6669
898326,0.0834,-0.7410,-0.6667
898365,0.0884,-0.7485,-0.6659
898375,0.0889,-0.7498,-0.6656
898414,0.0879,-0.7511,-0.6637
898427,0.0869,-0.7504,-0.6631
898442,0.0846,-0.7480,-0.6619
898459,0.0819,-0.7449,-0.6608
898474,0.0790,-0.7412,-0.6598
898487,0.0762,-0.7375,-0.6591
898500,0.0748,-0.7358,-0.6588
898515,0.0728,-0.7328,-0.6587
898525,0.0719,-0.7316,-0.6588
898540,0.0710,-0.7301,-0.6593
898555,0.0712,-0.7300,-0.6602
898569,0.0724,-0.7313,-0.6615
898579,0.0735,-0.7324,-0.6622
898621,0.0812,-0.7413,-0.6661
898636,0.0844,-0.7451,-0.6675
898663,0.0883,-0.7501,-0.6687
898673,0.0892,-0.7515,-0.6688
898688,0.0903,-0.7534,-0.6687
898702,0.0907,-0.7546,-0.6677
898717,0.0902,-0.7550,-0.6661
898733,0.0890,-0.7545,-0.6637
898746,0.0880,-0.7542,-0.6624
898761,0.0857,-0.7529,-0.6593
898775,0.0829,-0.7513,-0.6562
898785,0.0814,-0.7505,-0.6548
898816,0.0747,-0.7466,-0.6501
898830,0.0712,-0.7449,-0.6492
898844,0.0696,-0.7440,-0.6493
898861,0.0665,-0.7428,-0.6514
898876,0.0638,-0.7421,-0.6570
898890,0.0615,-0.7419,-0.6675
898906,0.0594,-0.7424,-0.6838
898925,0.0576,-0.7434,-0.7069
898940,0.0554,-0.7448,-0.7367
898967,0.0505,-0.7472,-0.7939
898984,0.0459,-0.7483,-0.8394
898994,0.0399,-0.7484,-0.8887
899008,0.0364,-0.7479,-0.9139
899022,0.0283,-0.7460,-0.9642
899037,0.0187,-0.7419,-1.0115
899068,-0.0032,-0.7246,-1.0839
899081,-0.0085,-0.7180,-1.0946
899096,-0.0181,-0.7025,-1.1038
899113,-0.0251,-0.6853,-1.0938
899128,-0.0293,-0.6682,-1.0619
899142,-0.0295,-0.6534,-1.0065
899155,-0.0280,-0.6473,-0.9700
899170,-0.0206,-0.6387,-0.8802
899180,-0.0145,-0.6365,-0.8274
899199,0.0151,-0.6412,-0.6415
899212,0.0288,-0.6473,-0.5714
899227,0.0607,-0.6671,-0.4222
899304,0.2397,-0.8455,0.3173
899346,0.3407,-0.9749,0.4969
899359,0.3525,-0.9919,0.5093
899376,0.3702,-1.0198,0.5085
899391,0.3792,-1.0374,0.4751
899401,0.3799,-1.0416,0.4470
899416,0.3735,-1.0403,0.3701
899430,0.3569,-1.0253,0.2695
899461,0.2944,-0.9550,0.0160
899474,0.2734,-0.9298,-0.0549
899489,0.2266,-0.8726,-0.2014
899505,0.1747,-0.8090,-0.3508
899520,0.1212,-0.7435,-0.4988
899534,0.0692,-0.6809,-0.6411
899548,0.0448,-0.6521,-0.7090
899562,0.0007,-0.6021,-0.8361
899572,-0.0183,-0.5815,-0.8943
899587,-0.0502,-0.5504,-0.9988
899604,-0.0731,-0.5331,-1.0850
899639,-0.0934,-0.5339,-1.1958
899670,-0.0853,-0.5646,-1.2228
899685,-0.0735,-0.5845,-1.2073
899699,-0.0583,-0.6049,-1.1750
899716,-0.0410,-0.6243,-1.1290
899730,-0.0228,-0.6421,-1.0725
899744,-0.0138,-0.6503,-1.0414
899759,0.0038,-0.6650,-0.9760
899773,0.0200,-0.6777,-0.9087
899783,0.0273,-0.6833,-0.8755
899798,0.0404,-0.6934,-0.8115
899808,0.0461,-0.6979,-0.7815
899823,0.0555,-0.7057,-0.7267
899837,0.0626,-0.7123,-0.6804
899868,0.0692,-0.7201,-0.6300
899883,0.0713,-0.7241,-0.6095
899898,0.0719,-0.7273,-0.5986
899908,0.0718,-0.7285,-0.5967
899947,0.0687,-0.7321,-0.6117
899962,0.0671,-0.7319,-0.6256
899972,0.0663,-0.7316,-0.6333
899987,0.0647,-0.7302,-0.6494
900002,0.0632,-0.7283,-0.6653
900015,0.0625,-0.7271,-0.6727
900057,0.0591,-0.7184,-0.7059
900070,0.0587,-0.7169,-0.7091
900085,0.0580,-0.7142,-0.7135
900095,0.0577,-0.7130,-0.7147
900110,0.0575,-0.7109,-0.7156
900124,0.0574,-0.7094,-0.7144
900137,0.0575,-0.7087,-0.7131
900152,0.0576,-0.7080,-0.7096
900167,0.0580,-0.7078,-0.7050
900182,0.0583,-0.7079,-0.6998
900194,0.0587,-0.7083,-0.6973
900209,0.0594,-0.7091,-0.6925
900220,0.0599,-0.7098,-0.6903
900300,0.0634,-0.7175,-0.6844
900310,0.0634,-0.7179,-0.6852
900324,0.0634,-0.7180,-0.6870
900339,0.0634,-0.7178,-0.6892
900353,0.0632,-0.7173,-0.6915
900366,0.0632,-0.7169,-0.6926
900376,0.0632,-0.7162,-0.6949
900391,0.0632,-0.7158,-0.6960
900404,0.0635,-0.7153,-0.6981
900422,0.0637,-0.7148,-0.7003
900461,0.0630,-0.7136,-0.7124
900475,0.0614,-0.7122,-0.7234
900488,0.0601,-0.7111,-0.7311
900505,0.0563,-0.7084,-0.7513
900519,0.0513,-0.7047,-0.7791
900554,0.0393,-0.6956,-0.8536
900571,0.0341,-0.6909,-0.8964
900585,0.0302,-0.6870,-0.9385
900600,0.0282,-0.6844,-0.9766
900615,0.0286,-0.6832,-1.0072
900625,0.0297,-0.6831,-1.0187
900656,0.0411,-0.6855,-1.0299
900669,0.0455,-0.6869,-1.0223
900684,0.0554,-0.6906,-0.9935
900700,0.0660,-0.6958,-0.9462
900714,0.0765,-0.7029,-0.8815
900729,0.0865,-0.7115,-0.8020
900742,0.0913,-0.7166,-0.7578
900756,0.1001,-0.7278,-0.6627
900766,0.1042,-0.7340,-0.6127
900781,0.1124,-0.7479,-0.5096
900795,0.1202,-0.7642,-0.4053
900808,0.1240,-0.7732,-0.3536
900826,0.1359,-0.8032,-0.2057
900857,0.1494,-0.8361,-0.0767
900885,0.1727,-0.8824,0.0530
900902,0.1868,-0.9064,0.0977
900916,0.2018,-0.9304,0.1287
900930,0.2095,-0.9421,0.1393
900944,0.2247,-0.9650,0.1511
900958,0.2390,-0.9854,0.1514
900968,0.2455,-0.9943,0.1476
900983,0.2563,-1.0085,0.1331
900996,0.2605,-1.0135,0.1227
901011,0.2660,-1.0190,0.0966
901028,0.2670,-1.0175,0.0642
901059,0.2548,-0.9924,-0.0149
901074,0.2419,-0.9692,-0.0602
901088,0.2255,-0.9401,-0.1084
901108,0.2063,-0.9066,-0.1593
901123,0.1857,-0.8708,-0.2126
901135,0.1752,-0.8525,-0.2402
901150,0.1542,-0.8165,-0.2980
901166,0.1342,-0.7822,-0.3594
901193,0.1074,-0.7349,-0.4613
901208,0.0919,-0.7056,-0.5383
901222,0.0785,-0.6772,-0.6238
901285,0.0411,-0.5742,-1.0193
901295,0.0375,-0.5647,-1.0647
901321,0.0262,-0.5455,-1.1750
901336,0.0186,-0.5419,-1.2203
901350,0.0114,-0.5457,-1.2390
901366,0.0051,-0.5557,-1.2307
901381,0.0026,-0.5626,-1.2169
901395,-0.0007,-0.5791,-1.1720
901409,-0.0017,-0.5977,-1.1078
901426,-0.0002,-0.6167,-1.0300
901436,0.0013,-0.6261,-0.9880
901451,0.0057,-0.6442,-0.9014
901465,0.0115,-0.6608,-0.8162
901498,0.0251,-0.6888,-0.6699
901529,0.0361,-0.7053,-0.5944
901544,0.0436,-0.7145,-0.5632
901557,0.0510,-0.7224,-0.5470
901574,0.0582,-0.7294,-0.5443
901589,0.0648,-0.7352,-0.5529
901603,0.0677,-0.7378,-0.5698
901618,0.0731,-0.7423,-0.5807
901632,0.0771,-0.7456,-0.6052
901665,0.0812,-0.7484,-0.6569
901680,0.0811,-0.7479,-0.6797
901694,0.0795,-0.7461,-0.6989
901704,0.0784,-0.7448,-0.7067
901719,0.0753,-0.7412,-0.7188
901732,0.0735,-0.7391,-0.7229
901747,0.0695,-0.7345,-0.7277
901760,0.0651,-0.7294,-0.7278
901771,0.0627,-0.7268,-0.7263
901816,0.0525,-0.7131,-0.7028
901833,0.0480,-0.7100,-0.6921
901846,0.0469,-0.7089,-0.6869
901860,0.0449,-0.7073,-0.6771
901875,0.0436,-0.7065,-0.6691
901888,0.0432,-0.7064,-0.6659
901920,0.0442,-0.7079,-0.6602
901934,0.0464,-0.7096,-0.6619
901948,0.0497,-0.7120,-0.6660
901965,0.0538,-0.7152,-0.6722
901978,0.0562,-0.7169,-0.6759
901993,0.0609,-0.7207,-0.6836
902007,0.0656,-0.7245,-0.6912
902019,0.0679,-0.7263,-0.6946
902030,0.0720,-0.7296,-0.7004
902048,0.0757,-0.7327,-0.7043
902063,0.0782,-0.7351,-0.7056
902076,0.0791,-0.7362,-0.7051
902143,0.0741,-0.7362,-0.6779
902163,0.0687,-0.7323,-0.6708
902178,0.0649,-0.7290,-0.6653
902190,0.0631,-0.7273,-0.6632
902205,0.0598,-0.7240,-0.6608
902221,0.0569,-0.7213,-0.6606
902235,0.0547,-0.7195,-0.6626
902254,0.0531,-0.7185,-0.6660
902269,0.0525,-0.7185,-0.6703
902335,0.0555,-0.7244,-0.6840
902352,0.0562,-0.7264,-0.6847
902366,0.0562,-0.7283,-0.6846
902379,0.0559,-0.7290,-0.6844
902414,0.0520,-0.7299,-0.6886
902424,0.0505,-0.7294,-0.6920
902439,0.0468,-0.7277,-0.7041
902457,0.0417,-0.7250,-0.7246
902472,0.0354,-0.7216,-0.7555
902509,0.0200,-0.7131,-0.8513
902524,0.0121,-0.7079,-0.9139
902537,0.0048,-0.7020,-0.9818
902554,-0.0013,-0.6957,-1.0496
902567,-0.0038,-0.6923,-1.0813
902582,-0.0071,-0.6855,-1.1359
902595,-0.0079,-0.6794,-1.1725
902611,-0.0057,-0.6743,-1.1846
902621,-0.0033,-0.6724,-1.1799
902636,0.0045,-0.6696,-1.1469
902649,0.0100,-0.6688,-1.1183
902660,0.0245,-0.6683,-1.0371
902673,0.0336,-0.6687,-0.9851
902705,0.0823,-0.6774,-0.7151
902733,0.1461,-0.7069,-0.3853
902750,0.1813,-0.7319,-0.2183
902763,0.1991,-0.7467,-0.1379
902778,0.2343,-0.7798,0.0118
902792,0.2676,-0.8157,0.1421
902804,0.2830,-0.8340,0.1985
902815,0.3103,-0.8704,0.2925
902829,0.3219,-0.8878,0.3297
902843,0.3402,-0.9207,0.3849
902858,0.3518,-0.9492,0.4150
902868,0.3550,-0.9615,0.4213
902899,0.3517,-0.9940,0.3951
902914,0.3422,-0.9988,0.3558
902927,0.3359,-0.9979,0.3308
902943,0.3213,-0.9897,0.2711
902958,0.3042,-0.9729,0.2004
902972,0.2850,-0.9476,0.1206
902984,0.2748,-0.9321,0.0776
902999,0.2527,-0.8959,-0.0142
903009,0.2410,-0.8756,-0.0629
903036,0.1896,-0.7841,-0.2803
903049,0.1758,-0.7596,-0.3411
903064,0.1476,-0.7106,-0.4706
903097,0.0931,-0.6222,-0.7498
903111,0.0691,-0.5896,-0.8868
903126,0.0483,-0.5686,-1.0117
903136,0.0394,-0.5629,-1.0671
903151,0.0251,-0.5610,-1.1599
903164,0.0198,-0.5646,-1.1962
903179,0.0125,-0.5792,-1.2467
903193,0.0095,-0.6012,-1.2676
903203,0.0095,-0.6138,-1.2673
903218,0.0121,-0.6398,-1.2468
903233,0.0172,-0.6642,-1.2034
903246,0.0204,-0.6749,-1.1746
903266,0.0315,-0.6993,-1.0685
903277,0.0352,-0.7046,-1.0289
903292,0.0424,-0.7109,-0.9480
903306,0.0487,-0.7125,-0.8689
903350,0.0586,-0.7057,-0.7059
903414,0.0607,-0.6967,-0.6013
903424,0.0609,-0.6969,-0.6008
903438,0.0620,-0.6986,-0.6057
903451,0.0629,-0.7000,-0.6106
903466,0.0654,-0.7036,-0.6239
903483,0.0687,-0.7080,-0.6400
903514,0.0762,-0.7172,-0.6731
903529,0.0797,-0.7208,-0.6866
903544,0.0828,-0.7235,-0.6969
903554,0.0840,-0.7245,-0.7007
903569,0.0861,-0.7255,-0.7054
903581,0.0868,-0.7256,-0.7065
903596,0.0878,-0.7252,-0.7069
903610,0.0880,-0.7240,-0.7052
903625,0.0879,-0.7223,-0.7023
903652,0.0876,-0.7196,-0.6976
903667,0.0880,-0.7181,-0.6951
903722,0.0935,-0.7184,-0.6921
903737,0.0962,-0.7205,-0.6923
903747,0.0975,-0.7233,-0.6921
903762,0.1001,-0.7249,-0.6920
903776,0.1022,-0.7278,-0.6912
903790,0.1038,-0.7303,-0.6897
903802,0.1042,-0.7313,-0.6887
903813,0.1046,-0.7325,-0.6865
903827,0.1044,-0.7328,-0.6853
903841,0.1028,-0.7324,-0.6832
903856,0.0999,-0.7310,-0.6823
903868,0.0979,-0.7300,-0.6826
903879,0.0931,-0.7269,-0.6859
903889,0.0903,-0.7251,-0.6892
903903,0.0844,-0.7200,-0.7006
903917,0.0811,-0.7167,-0.7091
903931,0.0743,-0.7083,-0.7330
903991,0.0476,-0.6616,-0.8938
904008,0.0399,-0.6464,-0.9513
904022,0.0333,-0.6337,-1.0031
904037,0.0287,-0.6256,-1.0419
904051,0.0272,-0.6240,-1.0615
904064,0.0280,-0.6261,-1.0627
904075,0.0326,-0.6356,-1.0460
904093,0.0416,-0.6519,-1.0038
904108,0.0551,-0.6733,-0.9379
904121,0.0632,-0.6857,-0.8972
904141,0.0923,-0.7261,-0.7521
904172,0.1245,-0.7697,-0.5350
904187,0.1455,-0.7991,-0.4824
904201,0.1646,-0.8278,-0.3853
904217,0.1807,-0.8547,-0.3024
904232,0.1934,-0.8790,-0.2369
904259,0.2052,-0.9086,-0.1721
904274,0.2080,-0.9229,-0.1489
904284,0.2079,-0.9281,-0.1422
904295,0.2068,-0.9351,-0.1365
904309,0.2021,-0.9368,-0.1364
904323,0.1949,-0.9368,-0.1387
904338,0.1864,-0.9329,-0.1410
904400,0.1687,-0.9081,-0.1053
904410,0.1727,-0.9047,-0.0798
904425,0.1768,-0.9043,-0.0654
904439,0.1888,-0.9067,-0.0352
904453,0.2059,-0.9130,-0.0055
904470,0.2269,-0.9220,0.0205
904484,0.2498,-0.9323,0.0403
904495,0.2611,-0.9373,0.0471
904510,0.2825,-0.9453,0.0537
904522,0.2919,-0.9479,0.0531
904554,0.3174,-0.9436,0.0192
904581,0.3213,-0.9227,-0.0450
904598,0.3107,-0.8861,-0.1479
904613,0.3041,-0.8705,-0.1914
904627,0.2865,-0.8347,-0.2920
904641,0.2639,-0.7935,-0.4092
904656,0.2369,-0.7478,-0.5394
904666,0.2220,-0.7240,-0.6077
904681,0.1902,-0.6760,-0.7461
904696,0.1565,-0.6305,-0.8799
904710,0.1396,-0.6099,-0.9425
904748,0.0626,-0.5404,-1.1829
904763,0.0388,-0.5303,-1.2369
904777,0.0288,-0.5286,-1.2543
904794,0.0132,-0.5310,-1.2693
904809,0.0031,-0.5396,-1.2626
904823,-0.0020,-0.5527,-1.2330
904837,-0.0024,-0.5692,-1.1848
904849,-0.0013,-0.5784,-1.1548
904860,0.0033,-0.5979,-1.0854
904888,0.0150,-0.6279,-0.9670
904906,0.0250,-0.6471,-0.8856
904944,0.0543,-0.6886,-0.7054
904959,0.0663,-0.7023,-0.6508
904972,0.0719,-0.7085,-0.6281
904989,0.0823,-0.7196,-0.5920
905004,0.0911,-0.7292,-0.5681
905018,0.0977,-0.7373,-0.5552
905030,0.1002,-0.7408,-0.5524
905045,0.1036,-0.7471,-0.5525
905055,0.1046,-0.7498,-0.5549
905070,0.1053,-0.7545,-0.5632
905084,0.1046,-0.7587,-0.5743
905099,0.1029,-0.7621,-0.5864
905112,0.1019,-0.7634,-0.5923
905143,0.0967,-0.7666,-0.6124
905157,0.0940,-0.7664,-0.6199
905192,0.0901,-0.7628,-0.6313
905202,0.0897,-0.7615,-0.6342
905217,0.0898,-0.7584,-0.6400
905231,0.0908,-0.7554,-0.6466
905245,0.0924,-0.7526,-0.6539
905258,0.0934,-0.7513,-0.6578
905268,0.0942,-0.7502,-0.6617
905283,0.0957,-0.7484,-0.6696
905297,0.0966,-0.7468,-0.6768
905316,0.0964,-0.7455,-0.6826
905395,0.0828,-0.7340,-0.6760
905414,0.0787,-0.7305,-0.6697
905429,0.0751,-0.7271,-0.6646
905442,0.0718,-0.7238,-0.6627
905455,0.0704,-0.7222,-0.6637
905466,0.0684,-0.7190,-0.6707
905510,0.0657,-0.7109,-0.7274
905520,0.0653,-0.7095,-0.7460
905551,0.0624,-0.7032,-0.8387
905566,0.0594,-0.6993,-0.8906
905578,0.0574,-0.6970,-0.9161
905595,0.0521,-0.6919,-0.9633
905610,0.0452,-0.6855,-1.0020
905624,0.0366,-0.6782,-1.0286
905638,0.0267,-0.6699,-1.0403
905651,0.0214,-0.6656,-1.0402
905666,0.0101,-0.6571,-1.0276
905681,-0.0010,-0.6498,-0.9991
905696,-0.0106,-0.6444,-0.9568
905708,-0.0145,-0.6428,-0.9310
905749,-0.0168,-0.6505,-0.7723
905765,-0.0063,-0.6630,-0.7008
905794,0.0371,-0.7074,-0.5541
905804,0.0524,-0.7223,-0.5176
905819,0.0869,-0.7556,-0.4458
905831,0.1057,-0.7737,-0.4105
905845,0.1448,-0.8109,-0.3418
905860,0.1838,-0.8481,-0.2759
905870,0.2025,-0.8661,-0.2441
905885,0.2366,-0.8989,-0.1835
905900,0.2645,-0.9263,-0.1274
905913,0.2758,-0.9374,-0.1014
905930,0.2926,-0.9537,-0.0542
905961,0.3044,-0.9653,0.0183
905976,0.3013,-0.9631,0.0427
905990,0.2941,-0.9581,0.0590
906005,0.2896,-0.9550,0.0669
906019,0.2798,-0.9484,0.0679
906034,0.2705,-0.9420,0.0637
906048,0.2634,-0.9366,0.0520
906060,0.2609,-0.9343,0.0433
906071,0.2582,-0.9308,0.0210
906112,0.2626,-0.9247,-0.0601
906126,0.2642,-0.9231,-0.0801
906159,0.2670,-0.9099,-0.1720
906173,0.2640,-0.8964,-0.2261
906188,0.2574,-0.8765,-0.2863
906198,0.2526,-0.8639,-0.3191
906213,0.2396,-0.8337,-0.3910
906227,0.2228,-0.7968,-0.4722
906240,0.2130,-0.7760,-0.5164
906254,0.1915,-0.7308,-0.6117
906264,0.1802,-0.7070,-0.6621
906279,0.1569,-0.6592,-0.7667
906294,0.1338,-0.6138,-0.8715
906306,0.1226,-0.5933,-0.9222
906321,0.1017,-0.5587,-1.0161
906331,0.0920,-0.5454,-1.0580
906342,0.0747,-0.5272,-1.1281
906355,0.0670,-0.5225,-1.1555
906370,0.0535,-0.5208,-1.1935
906384,0.0424,-0.5280,-1.2086
906460,0.0151,-0.6038,-1.0483
906470,0.0144,-0.6113,-1.0170
906485,0.0145,-0.6244,-0.9529
906500,0.0170,-0.6346,-0.8900
906515,0.0217,-0.6429,-0.8317
906531,0.0283,-0.6498,-0.7803
906549,0.0365,-0.6564,-0.7373
906564,0.0455,-0.6632,-0.7032
906576,0.0502,-0.6669,-0.6896
906615,0.0732,-0.6882,-0.6506
906630,0.0817,-0.6976,-0.6458
906644,0.0892,-0.7070,-0.6448
906659,0.0927,-0.7115,-0.6454
906674,0.0986,-0.7202,-0.6479
906688,0.1031,-0.7277,-0.6514
906721,0.1072,-0.7378,-0.6592
906731,0.1071,-0.7391,-0.6613
906747,0.1058,-0.7402,-0.6654
906760,0.1035,-0.7395,-0.6699
906775,0.1005,-0.7372,-0.6749
906814,0.0936,-0.7301,-0.6855
906829,0.0901,-0.7264,-0.6907
906843,0.0867,-0.7233,-0.6951
906859,0.0834,-0.7206,-0.6980
906874,0.0802,-0.7186,-0.6995
906887,0.0786,-0.7178,-0.6995
906901,0.0757,-0.7166,-0.6980
906916,0.0728,-0.7157,-0.6947
906926,0.0714,-0.7153,-0.6924
906941,0.0685,-0.7147,-0.6869
906958,0.0656,-0.7144,-0.6808
906973,0.0627,-0.7141,-0.6744
907010,0.0585,-0.7136,-0.6646
907048,0.0583,-0.7137,-0.6620
907058,0.0591,-0.7141,-0.6630
907073,0.0613,-0.7155,-0.6664
907087,0.0640,-0.7175,-0.6713
907100,0.0654,-0.7188,-0.6740
907118,0.0698,-0.7231,-0.6829
907132,0.0712,-0.7246,-0.6858
907147,0.0736,-0.7273,-0.6909
907164,0.0754,-0.7294,-0.6947
907202,0.0762,-0.7314,-0.6970
907215,0.0756,-0.7312,-0.6965
907229,0.0735,-0.7303,-0.6953
907246,0.0706,-0.7284,-0.6951
907260,0.0668,-0.7253,-0.6979
907275,0.0623,-0.7213,-0.7062
907288,0.0597,-0.7191,-0.7131
907302,0.0541,-0.7139,-0.7344
907312,0.0510,-0.7109,-0.7490
907339,0.0364,-0.6974,-0.8356
907353,0.0321,-0.6932,-0.8629
907371,0.0232,-0.6844,-0.9525
907442,-0.0135,-0.6393,-1.1002
907458,-0.0171,-0.6322,-1.0919
907473,-0.0167,-0.6283,-1.0602
907488,-0.0117,-0.6282,-1.0052
907501,-0.0072,-0.6299,-0.9695
907514,0.0065,-0.6371,-0.8833
907529,0.0260,-0.6497,-0.7805
907544,0.0515,-0.6676,-0.6656
907557,0.0662,-0.6786,-0.6051
907597,0.1539,-0.7501,-0.2970
907612,0.1918,-0.7854,-0.1804
907646,0.2631,-0.8611,0.0253
907656,0.2791,-0.8799,0.0693
907671,0.3079,-0.9163,0.1471
907685,0.3319,-0.9497,0.2097
907697,0.3419,-0.9648,0.2351
907712,0.3574,-0.9908,0.2733
907728,0.3668,-1.0098,0.2942
907743,0.3702,-1.0200,0.2976
907757,0.3676,-1.0205,0.2837
907770,0.3641,-1.0171,0.2704
907780,0.3595,-1.0112,0.2531
907811,0.3300,-0.9672,0.1472
907826,0.3105,-0.9365,0.0754
907840,0.2893,-0.9027,-0.0067
907851,0.2783,-0.8853,-0.0513
907866,0.2562,-0.8500,-0.1465
907880,0.2344,-0.8147,-0.2489
907893,0.2238,-0.7972,-0.3025
907908,0.2031,-0.7634,-0.4135
907918,0.1934,-0.7471,-0.4703
907953,0.1515,-0.6747,-0.7584
907967,0.1447,-0.6625,-0.8137
908008,0.1155,-0.6147,-1.0503
908023,0.1055,-0.6030,-1.1168
908037,0.0959,-0.5955,-1.1627
908047,0.0916,-0.5931,-1.1775
908062,0.0830,-0.5912,-1.1904
908076,0.0756,-0.5927,-1.1825
908090,0.0723,-0.5945,-1.1713
908107,0.0668,-0.6000,-1.1366
908121,0.0630,-0.6077,-1.0887
908136,0.0608,-0.6172,-1.0316
908151,0.0603,-0.6279,-0.9694
908163,0.0608,-0.6337,-0.9375
908174,0.0627,-0.6456,-0.8739
908192,0.0663,-0.6577,-0.8132
908207,0.0712,-0.6694,-0.7574
908220,0.0740,-0.6750,-0.7321
908234,0.0802,-0.6858,-0.6870
908285,0.1012,-0.7109,-0.6036
908300,0.1079,-0.7166,-0.5939
908310,0.1112,-0.7189,-0.5922
908325,0.1176,-0.7227,-0.5948
908339,0.1235,-0.7255,-0.6045
908351,0.1265,-0.7266,-0.6115
908366,0.1317,-0.7286,-0.6282
908376,0.1340,-0.7295,-0.6375
908398,0.1394,-0.7318,-0.6664
908413,0.1415,-0.7328,-0.6842
908425,0.1421,-0.7332,-0.6921
908486,0.1356,-0.7291,-0.7189
908506,0.1310,-0.7262,-0.7142
908521,0.1254,-0.7227,-0.7064
908534,0.1194,-0.7190,-0.6968
908562,0.1107,-0.7135,-0.6821
908572,0.1083,-0.7118,-0.6780
908587,0.1044,-0.7091,-0.6713
908597,0.1030,-0.7080,-0.6688
908612,0.1018,-0.7068,-0.6663
908626,0.1022,-0.7069,-0.6664
908657,0.1067,-0.7109,-0.6727
908671,0.1083,-0.7126,-0.6749
908684,0.1115,-0.7162,-0.6794
908701,0.1145,-0.7198,-0.6833
908716,0.1172,-0.7229,-0.6860
908728,0.1182,-0.7242,-0.6868
908742,0.1196,-0.7260,-0.6868
908757,0.1200,-0.7266,-0.6849
908767,0.1198,-0.7266,-0.6836
908782,0.1182,-0.7255,-0.6798
908800,0.1154,-0.7235,-0.6757
908814,0.1119,-0.7207,-0.6719
908864,0.1034,-0.7111,-0.6698
908908,0.1042,-0.7089,-0.6801
908918,0.1051,-0.7095,-0.6829
908932,0.1072,-0.7114,-0.6881
908947,0.1094,-0.7140,-0.6927
908961,0.1115,-0.7166,-0.6960
908978,0.1130,-0.7185,-0.6975
908993,0.1139,-0.7200,-0.6971
909003,0.1141,-0.7203,-0.6962
909018,0.1136,-0.7205,-0.6931
909031,0.1130,-0.7202,-0.6912
909062,0.1090,-0.7178,-0.6829
909077,0.1068,-0.7158,-0.6808
909090,0.1055,-0.7135,-0.6819
909106,0.1052,-0.7123,-0.6843
909121,0.1053,-0.7097,-0.6936
909135,0.1066,-0.7069,-0.7107
909149,0.1082,-0.7040,-0.7373
909162,0.1089,-0.7021,-0.7545
909172,0.1093,-0.6980,-0.7972
909193,0.1078,-0.6923,-0.8499
909211,0.1039,-0.6848,-0.9098
909226,0.0978,-0.6757,-0.9728
909257,0.0829,-0.6559,-1.0872
909271,0.0768,-0.6478,-1.1277
909284,0.0747,-0.6447,-1.1415
909301,0.0732,-0.6410,-1.1532
909316,0.0759,-0.6412,-1.1411
909330,0.0830,-0.6456,-1.1029
909342,0.0880,-0.6494,-1.0739
909357,0.1010,-0.6598,-0.9967
909367,0.1086,-0.6664,-0.9492
909382,0.1255,-0.6821,-0.8387
909396,0.1440,-0.7014,-0.7117
909413,0.1633,-0.7239,-0.5741
909491,0.2483,-0.8452,0.0695
909535,0.2921,-0.9124,0.2645
909549,0.3005,-0.9294,0.3115
909565,0.3052,-0.9435,0.3402
909580,0.3060,-0.9492,0.3477
909595,0.3048,-0.9578,0.3491
909608,0.2999,-0.9622,0.3333
909619,0.2960,-0.9626,0.3193
909650,0.2722,-0.9540,0.2292
909665,0.2561,-0.9435,0.1675
909677,0.2473,-0.9368,0.1334
909694,0.2288,-0.9200,0.0601
909708,0.2095,-0.8989,-0.0188
909723,0.1903,-0.8733,-0.1016
909735,0.1808,-0.8589,-0.1439
909750,0.1624,-0.8274,-0.2302
909760,0.1534,-0.8105,-0.2739
909775,0.1364,-0.7756,-0.3618
909790,0.1208,-0.7402,-0.4506
909825,0.0963,-0.6727,-0.6335
909859,0.0830,-0.6146,-0.8750
909874,0.0803,-0.5913,-0.9229
909889,0.0800,-0.5734,-1.0148
909899,0.0804,-0.5667,-1.0576
909914,0.0828,-0.5580,-1.1338
909929,0.0864,-0.5555,-1.1937
909944,0.0909,-0.5588,-1.2336
909960,0.0958,-0.5671,-1.2509
909974,0.1008,-0.5791,-1.2444
909988,0.1031,-0.5861,-1.2327
910003,0.1074,-0.6012,-1.1935
910017,0.1107,-0.6169,-1.1362
910027,0.1119,-0.6245,-1.1023
910037,0.1128,-0.6320,-1.0656
910052,0.1134,-0.6453,-0.9863
910066,0.1123,-0.6565,-0.9041
910078,0.1113,-0.6613,-0.8634
910110,0.1046,-0.6749,-0.7168
910137,0.0990,-0.6816,-0.6345
910154,0.0951,-0.6874,-0.5823
910169,0.0945,-0.6893,-0.5718
910183,0.0945,-0.6935,-0.5607
910197,0.0964,-0.6980,-0.5613
910209,0.0980,-0.7004,-0.5654
910220,0.1021,-0.7053,-0.5793
910238,0.1071,-0.7101,-0.5989
910253,0.1125,-0.7144,-0.6213
910266,0.1155,-0.7164,-0.6329
910280,0.1211,-0.7198,-0.6558
910311,0.1311,-0.7242,-0.6951
910324,0.1332,-0.7247,-0.7029
910339,0.1365,-0.7250,-0.7156
910355,0.1384,-0.7245,-0.7241
910370,0.1388,-0.7231,-0.7289
910385,0.1377,-0.7211,-0.7302
910397,0.1366,-0.7197,-0.7297
910412,0.1333,-0.7166,-0.7272
910454,0.1215,-0.7075,-0.7153
910468,0.1160,-0.7043,-0.7107
910536,0.0955,-0.6963,-0.7128
910553,0.0914,-0.6945,-0.7229
910567,0.0876,-0.6924,-0.7385
910582,0.0841,-0.6897,-0.7600
910597,0.0806,-0.6862,-0.7878
910610,0.0787,-0.6841,-0.8042
910620,0.0768,-0.6791,-0.8418
910635,0.0730,-0.6764,-0.8628
910649,0.0691,-0.6702,-0.9083
910666,0.0654,-0.6631,-0.9559
910705,0.0579,-0.6469,-1.0524
910740,0.0542,-0.6443,-1.0624
910750,0.0540,-0.6461,-1.0514
910765,0.0544,-0.6532,-1.0122
910779,0.0566,-0.6649,-0.9512
910792,0.0605,-0.6812,-0.8708
910807,0.0632,-0.6908,-0.8248
910817,0.0695,-0.7129,-0.7240
910831,0.0729,-0.7253,-0.6704
910845,0.0801,-0.7523,-0.5603
910859,0.0872,-0.7810,-0.4504
910869,0.0906,-0.7957,-0.3971
910900,0.1041,-0.8489,-0.2069
910913,0.1078,-0.8600,-0.1674
910928,0.1160,-0.8788,-0.1000
910944,0.1255,-0.8937,-0.0487
910959,0.1364,-0.9055,-0.0128
910973,0.1481,-0.9153,0.0089
910986,0.1539,-0.9198,0.0150
911000,0.1654,-0.9280,0.0195
911010,0.1708,-0.9318,0.0184
911045,0.1857,-0.9448,-0.0020
911060,0.1881,-0.9495,-0.0183
911070,0.1566,-0.9521,-0.0367
911101,0.1780,-0.9513,-0.0653
911116,0.1692,-0.9468,-0.0830
911130,0.1594,-0.9392,-0.0984
911146,0.1498,-0.9296,-0.1106
911160,0.1417,-0.9187,-0.1194
911174,0.1385,-0.9132,-0.1227
911188,0.1344,-0.9025,-0.1279
911202,0.1334,-0.8922,-0.1328
911212,0.1340,-0.8871,-0.1359
911227,0.1375,-0.8768,-0.1447
911240,0.1399,-0.8716,-0.1509
911254,0.1460,-0.8605,-0.1687
911271,0.1528,-0.8485,-0.1952
911302,0.1649,-0.8215,-0.2804
911316,0.1683,-0.8057,-0.3409
911350,0.1687,-0.7689,-0.4972
911360,0.1675,-0.7589,-0.5426
911375,0.1641,-0.7383,-0.6393
911387,0.1620,-0.7278,-0.6899
911402,0.1578,-0.7067,-0.7935
911417,0.1537,-0.6862,-0.8965
911427,0.1515,-0.6764,-0.9462
911441,0.1470,-0.6582,-1.0376
911456,0.1412,-0.6428,-1.1138
911472,0.1340,-0.6310,-1.1692
911551,0.0927,-0.6306,-1.1125
911567,0.0869,-0.6395,-1.0448
911582,0.0840,-0.6501,-0.9674
911596,0.0841,-0.6619,-0.8864
911608,0.0853,-0.6680,-0.8462
911625,0.0894,-0.6803,-0.7697
911652,0.1025,-0.7040,-0.6447
911665,0.1062,-0.7094,-0.6208
911676,0.1134,-0.7189,-0.5834
911714,0.1241,-0.7327,-0.5463
911729,0.1273,-0.7367,-0.5446
911743,0.1290,-0.7390,-0.5520
911759,0.1299,-0.7396,-0.5668
911772,0.1300,-0.7395,-0.5762
911787,0.1300,-0.7383,-0.5978
911801,0.1296,-0.7363,-0.6212
911816,0.1290,-0.7339,-0.6447
911832,0.1284,-0.7314,-0.6664
911845,0.1282,-0.7302,-0.6763
911860,0.1274,-0.7281,-0.6932
911874,0.1266,-0.7266,-0.7063
911887,0.1262,-0.7261,-0.7112
911919,0.1244,-0.7246,-0.7197
911954,0.1213,-0.7234,-0.7079
911964,0.1205,-0.7230,-0.7035
911979,0.1185,-0.7220,-0.6937
911992,0.1174,-0.7213,-0.6887
912006,0.1149,-0.7197,-0.6790
912019,0.1123,-0.7180,-0.6705
912030,0.1111,-0.7172,-0.6671
912045,0.1091,-0.7157,-0.6622
912058,0.1085,-0.7151,-0.6609
912073,0.1080,-0.7145,-0.6603
912090,0.1085,-0.7148,-0.6621
912122,0.1116,-0.7184,-0.6714
912137,0.1135,-0.7212,-0.6775
912151,0.1154,-0.7236,-0.6843
912162,0.1160,-0.7245,-0.6880
912177,0.1168,-0.7252,-0.6968
912189,0.1168,-0.7249,-0.7019
912204,0.1156,-0.7228,-0.7150
912218,0.1127,-0.7191,-0.7324
912228,0.1105,-0.7167,-0.7434
912266,0.0931,-0.7007,-0.8224
912279,0.0889,-0.6970,-0.8429
912314,0.0675,-0.6772,-0.9537
912329,0.0636,-0.6735,-0.9745
912343,0.0566,-0.6664,-1.0106
912353,0.0536,-0.6632,-1.0251
912368,0.0482,-0.6576,-1.0450
912382,0.0441,-0.6531,-1.0511
912397,0.0413,-0.6497,-1.0419
912412,0.0402,-0.6479,-1.0161
912427,0.0402,-0.6479,-0.9971
912441,0.0415,-0.6506,-0.9467
912456,0.0443,-0.6582,-0.8813
912470,0.0488,-0.6718,-0.8035
912480,0.0516,-0.6810,-0.7609
912499,0.0590,-0.7040,-0.6700
912514,0.0687,-0.7313,-0.5750
912528,0.0820,-0.7607,-0.4789
912613,0.1984,-0.8865,-0.0807
912623,0.2115,-0.8959,-0.0524
912638,0.2362,-0.9131,-0.0026
912652,0.2574,-0.9287,0.0385
912667,0.2743,-0.9430,0.0710
912682,0.3119,-0.9558,0.0951
912700,0.2914,-0.9667,0.1106
912713,0.2920,-0.9712,0.1152
912727,0.2894,-0.9772,0.1177
912766,0.2644,-0.9690,0.0847
912781,0.2502,-0.9556,0.0568
912794,0.2428,-0.9470,0.0398
912810,0.2279,-0.9277,0.0005
912826,0.2140,-0.9069,-0.0457
912841,0.2017,-0.8864,-0.0983
912874,0.1829,-0.8503,-0.2213
912884,0.1791,-0.8422,-0.2551
912902,0.1724,-0.8257,-0.3254
912917,0.1655,-0.8075,-0.3978
912931,0.1577,-0.7861,-0.4711
912969,0.1311,-0.7137,-0.6576
912983,0.1250,-0.6963,-0.6960
912997,0.1129,-0.6595,-0.7740
913013,0.1018,-0.6229,-0.8523
913027,0.0924,-0.5892,-0.9282
913040,0.0885,-0.5743,-0.9644
913055,0.0824,-0.5498,-1.0310
913069,0.0784,-0.5328,-1.0875
913079,0.0771,-0.5272,-1.1111
913094,0.0760,-0.5215,-1.1479
913104,0.0760,-0.5210,-1.1608
913119,0.0770,-0.5243,-1.1748
913133,0.0791,-0.5325,-1.1732
913164,0.0836,-0.5516,-1.1432
913191,0.0917,-0.5862,-1.0610
913208,0.0968,-0.6055,-1.0076
913223,0.1025,-0.6251,-0.9495
913236,0.1056,-0.6348,-0.9196
913251,0.1121,-0.6533,-0.8599
913265,0.1185,-0.6703,-0.8021
913275,0.1217,-0.6780,-0.7749
913290,0.1276,-0.6914,-0.7245
913307,0.1326,-0.7021,-0.6809
913321,0.1367,-0.7102,-0.6455
913360,0.1427,-0.7200,-0.6014
913374,0.1449,-0.7225,-0.5928
913389,0.1467,-0.7242,-0.5923
913405,0.1483,-0.7253,-0.5986
913420,0.1495,-0.7263,-0.6104
913433,0.1499,-0.7267,-0.6176
913447,0.1501,-0.7272,-0.6338
913462,0.1494,-0.7274,-0.6510
913472,0.1487,-0.7273,-0.6594
913505,0.1437,-0.7246,-0.6893
913519,0.1398,-0.7216,-0.7006
913598,0.1135,-0.6995,-0.7186
913614,0.1082,-0.6948,-0.7194
913629,0.1042,-0.6909,-0.7225
913643,0.1018,-0.6875,-0.7295
913657,0.1008,-0.6846,-0.7415
913672,0.1008,-0.6824,-0.7590
913687,0.1014,-0.6816,-0.7699
913702,0.1024,-0.6804,-0.7955
913719,0.1028,-0.6797,-0.8248
913758,0.0966,-0.6792,-0.8973
913773,0.0902,-0.6792,-0.9185
913811,0.0719,-0.6827,-0.9346
913821,0.0613,-0.6841,-0.9310
913834,0.0559,-0.6857,-0.9252
913849,0.0458,-0.6892,-0.9078
913863,0.0369,-0.6927,-0.8838
913876,0.0331,-0.6945,-0.8698
913886,0.0272,-0.6978,-0.8386
913899,0.0251,-0.6993,-0.8218
913914,0.0231,-0.7028,-0.7860
913924,0.0231,-0.7047,-0.7672
913939,0.0251,-0.7097,-0.7277
913981,0.0430,-0.7349,-0.6177
913995,0.0555,-0.7518,-0.5693
914012,0.0710,-0.7731,-0.5187
914027,0.0889,-0.7982,-0.4657
914040,0.1078,-0.8258,-0.4110
914054,0.1173,-0.8398,-0.3834
914068,0.1357,-0.8668,-0.3284
914078,0.1447,-0.8792,-0.3014
914099,0.1692,-0.9077,-0.2262
914112,0.1765,-0.9141,-0.2036
914130,0.1899,-0.9227,-0.1461
914161,0.2118,-0.9193,-0.1047
914175,0.2203,-0.9133,-0.0854
914190,0.2273,-0.9067,-0.0718
914207,0.2329,-0.9012,-0.0629
914222,0.2371,-0.8977,-0.0577
914234,0.2388,-0.8967,-0.0563
914249,0.2417,-0.8962,-0.0552
914263,0.2443,-0.8970,-0.0560
914273,0.2456,-0.8977,-0.0569
914288,0.2488,-0.8994,-0.0593
914303,0.2529,-0.9014,-0.0625
914316,0.2555,-0.9022,-0.0645
914357,0.2720,-0.9025,-0.0812
914372,0.2792,-0.8982,-0.0939
914386,0.2855,-0.8900,-0.1119
914422,0.2930,-0.8618,-0.1713
914437,0.2933,-0.8429,-0.2175
914451,0.2909,-0.8209,-0.2783
914461,0.2885,-0.8087,-0.3147
914476,0.2806,-0.7816,-0.4000
914488,0.2750,-0.7668,-0.4489
914503,0.2601,-0.7346,-0.5575
914517,0.2401,-0.7001,-0.6774
914527,0.2283,-0.6821,-0.7399
914538,0.2153,-0.6642,-0.8031
914553,0.1868,-0.6288,-0.9274
914567,0.1556,-0.5957,-1.0421
914581,0.1230,-0.5669,-1.1396
914641,0.0211,-0.5181,-1.2729
914658,0.0020,-0.5200,-1.2490
914672,-0.0101,-0.5273,-1.2036
914685,-0.0133,-0.5326,-1.1748
914713,-0.0078,-0.5619,-1.0353
914723,-0.0024,-0.5708,-0.9979
914741,0.0121,-0.5901,-0.9247
914755,0.0303,-0.6107,-0.8566
914770,0.0502,-0.6318,-0.7968
914807,0.0900,-0.6721,-0.7087
914822,0.1073,-0.6896,-0.6812
914836,0.1221,-0.7042,-0.6633
914853,0.1337,-0.7158,-0.6533
914868,0.1417,-0.7240,-0.6492
914881,0.1444,-0.7269,-0.6487
914899,0.1472,-0.7303,-0.6515
914916,0.1459,-0.7302,-0.6555
914930,0.1443,-0.7290,-0.6581
914948,0.1400,-0.7253,-0.6674
914963,0.1348,-0.7207,-0.6709
915002,0.1227,-0.7090,-0.6907
915029,0.1177,-0.7045,-0.7024
915046,0.1151,-0.7028,-0.7092
915061,0.1132,-0.7021,-0.7146
915075,0.1116,-0.7024,-0.7185
915089,0.1102,-0.7031,-0.7206
915102,0.1096,-0.7037,-0.7211
915112,0.1090,-0.7050,-0.7208
915127,0.1079,-0.7056,-0.7201
915141,0.1066,-0.7067,-0.7179
915154,0.1047,-0.7075,-0.7147
915167,0.1038,-0.7078,-0.7129
915199,0.0981,-0.7067,-0.7080
915214,0.0946,-0.7045,-0.7090
915229,0.0911,-0.7012,-0.7140
915245,0.0875,-0.6971,-0.7236
915259,0.0845,-0.6927,-0.7379
915273,0.0830,-0.6907,-0.7467
915286,0.0803,-0.6869,-0.7666
915301,0.0778,-0.6840,-0.7885
915311,0.0764,-0.6829,-0.7997
915350,0.0688,-0.6801,-0.8484
915360,0.0671,-0.6798,-0.8550
915399,0.0574,-0.6835,-0.8643
915417,0.0522,-0.6873,-0.8566
915432,0.0460,-0.6919,-0.8435
915442,0.0425,-0.6945,-0.8354
915457,0.0341,-0.6996,-0.8165
915470,0.0293,-0.7020,-0.8062
915484,0.0189,-0.7068,-0.7843
915499,0.0076,-0.7111,-0.7616
915509,0.0020,-0.7129,-0.7501
915524,-0.0089,-0.7166,-0.7271
915536,-0.0138,-0.7184,-0.7155
915551,-0.0219,-0.7228,-0.6913
915562,-0.0273,-0.7291,-0.6650
915633,-0.0151,-0.7848,-0.5149
915669,0.0201,-0.8351,-0.3821
915683,0.0287,-0.8451,-0.3531
915697,0.0464,-0.8644,-0.2947
915707,0.0552,-0.8735,-0.2656
915722,0.0723,-0.8904,-0.2094
915737,0.0879,-0.9047,-0.1576
915751,0.1012,-0.9164,-0.1129
915790,0.1190,-0.9321,-0.0513
915805,0.1227,-0.9371,-0.0363
915819,0.1224,-0.9407,-0.0317
915829,0.1210,-0.9420,-0.0332
915845,0.1152,-0.9438,-0.0428
915860,0.1063,-0.9443,-0.0596
915874,0.0955,-0.9434,-0.0815
915889,0.0895,-0.9423,-0.1248
915904,0.0775,-0.9388,-0.1179
915918,0.0662,-0.9341,-0.1404
915933,0.0570,-0.9282,-0.1583
915967,0.0497,-0.9142,-0.1744
916001,0.0648,-0.8993,-0.1688
916016,0.0820,-0.8925,-0.1647
916030,0.1051,-0.8862,-0.1646
916040,0.1183,-0.8833,-0.1670
916054,0.1467,-0.8777,-0.1787
916067,0.1611,-0.8748,-0.1885
916082,0.1890,-0.8678,-0.2167
916096,0.2128,-0.8583,-0.2570
916106,0.2224,-0.8521,-0.2816
916121,0.2365,-0.8362,-0.3397
916136,0.2429,-0.8149,-0.4093
916149,0.2433,-0.8022,-0.4482
916163,0.2389,-0.7729,-0.5338
916173,0.2343,-0.7566,-0.5800
916183,0.2283,-0.7393,-0.6281
916198,0.2128,-0.7029,-0.7275
916212,0.1937,-0.6664,-0.8274
916226,0.1725,-0.6327,-0.9216
916257,0.1401,-0.5930,-1.0702
916284,0.1044,-0.5692,-1.1263
916301,0.0927,-0.5703,-1.1356
916316,0.0861,-0.5786,-1.1229
916329,0.0847,-0.5848,-1.1091
916344,0.0857,-0.6003,-1.0692
916358,0.0911,-0.6179,-1.0166
916368,0.0952,-0.6268,-0.9872
916386,0.1051,-0.6440,-0.9253
916401,0.1166,-0.6593,-0.8633
916415,0.1281,-0.6718,-0.8054
916429,0.1335,-0.6768,-0.7549
916460,0.1511,-0.6899,-0.6971
916475,0.1567,-0.6932,-0.6718
916489,0.1599,-0.6953,-0.6562
916506,0.1606,-0.6964,-0.6493
916521,0.1592,-0.6968,-0.6489
916534,0.1576,-0.6968,-0.6508
916549,0.1533,-0.6962,-0.6570
916563,0.1481,-0.6948,-0.6655
916592,0.1398,-0.6913,-0.6802
916603,0.1351,-0.6885,-0.6903
916619,0.1318,-0.6859,-0.7003
916687,0.1344,-0.6876,-0.7314
916704,0.1377,-0.6917,-0.7351
916718,0.1412,-0.6963,-0.7368
916733,0.1445,-0.7008,-0.7362
916746,0.1459,-0.7028,-0.7352
916760,0.1477,-0.7059,-0.7317
916770,0.1479,-0.7069,-0.7291
916785,0.1473,-0.7079,-0.7230
916799,0.1450,-0.7073,-0.7158
916812,0.1433,-0.7064,-0.7119
916827,0.1389,-0.7039,-0.7045
916859,0.1283,-0.6969,-0.6920
916894,0.1201,-0.6913,-0.6859
916904,0.1180,-0.6903,-0.6855
916919,0.1177,-0.6903,-0.6858
916933,0.1178,-0.6915,-0.6875
916948,0.1190,-0.6940,-0.6902
916964,0.1210,-0.6974,-0.6934
916978,0.1232,-0.7012,-0.6965
916992,0.1243,-0.7031,-0.6981
917006,0.1261,-0.7067,-0.7004
917016,0.1267,-0.7081,-0.7010
917047,0.1277,-0.7119,-0.7001
917061,0.1270,-0.7123,-0.6971
917074,0.1263,-0.7120,-0.6953
917091,0.1244,-0.7108,-0.6918
917105,0.1216,-0.7086,-0.6896
917120,0.1183,-0.7052,-0.6908
917134,0.1145,-0.7008,-0.6976
917147,0.1124,-0.6984,-0.7039
917158,0.1082,-0.6929,-0.7225
917172,0.1060,-0.6902,-0.7352
917210,0.0951,-0.6787,-0.8279
917244,0.0863,-0.6746,-0.9188
917259,0.0820,-0.6735,-0.9597
917273,0.0778,-0.6722,-0.9921
917283,0.0757,-0.6714,-1.0039
917298,0.0717,-0.6696,-1.0173
917311,0.0698,-0.6687,-1.0186
917326,0.0660,-0.6672,-1.0096
917343,0.0625,-0.6670,-0.9866
917357,0.0596,-0.6685,-0.9513
917371,0.0576,-0.6719,-0.9061
917384,0.0573,-0.6744,-0.8809
917399,0.0577,-0.6812,-0.8263
917409,0.0588,-0.6855,-0.7976
917427,0.0624,-0.6964,-0.7382
917441,0.0680,-0.7101,-0.6769
917456,0.0757,-0.7264,-0.6144
917494,0.1049,-0.7749,-0.4550
917528,0.1388,-0.8167,-0.3236
917538,0.1484,-0.8269,-0.2900
917553,0.1689,-0.8467,-0.2223
917565,0.1796,-0.8561,-0.1881
917580,0.2013,-0.8737,-0.1201
917594,0.2231,-0.8895,-0.0536
917604,0.2339,-0.8970,-0.0215
917618,0.2546,-0.9113,0.0389
917630,0.2644,-0.9182,0.0667
918655,0.1136,-0.7161,-0.7012
918812,0.1241,-0.7173,-0.7510
918822,0.1215,-0.7151,-0.7651
918837,0.1150,-0.7100,-0.7991
918849,0.1112,-0.7070,-0.8186
918867,0.1030,-0.7002,-0.8616
918906,0.0784,-0.6785,-0.9740
918921,0.0675,-0.6691,-1.0106
918935,0.0564,-0.6599,-1.0371
918951,0.0461,-0.6517,-1.0503
918980,0.0342,-0.6437,-1.0411
918995,0.0302,-0.6425,-1.0145
919008,0.0302,-0.6458,-0.9713
919019,0.0319,-0.6492,-0.9438
919034,0.0383,-0.6600,-0.8778
919046,0.0432,-0.6674,-0.8397
919061,0.0553,-0.6855,-0.7554
919071,0.0624,-0.6962,-0.7097
919114,0.1116,-0.7711,-0.4113
919127,0.1198,-0.7837,-0.3608
919144,0.1361,-0.8070,-0.2628
919158,0.1523,-0.8270,-0.1707
919173,0.1692,-0.8434,-0.0868
919188,0.1871,-0.8566,-0.0125
919201,0.1965,-0.8624,0.0211
919211,0.2062,-0.8738,0.0807
919226,0.2257,-0.8796,0.1069
919240,0.2450,-0.8928,0.1523
919254,0.2633,-0.9081,0.1881
919315,0.3115,-0.9626,0.2207
919332,0.3197,-0.9703,0.1986
919347,0.3251,-0.9719,0.1615
919361,0.3274,-0.9668,0.1101
919376,0.3267,-0.9548,0.0452
919389,0.3251,-0.9464,0.0081
919399,0.3228,-0.9363,-0.0743
919414,0.3153,-0.9111,-0.1194
919428,0.3041,-0.8801,-0.2155
919442,0.2894,-0.8444,-0.3182
919454,0.2810,-0.8253,-0.3715
919465,0.2626,-0.7861,-0.4802
919475,0.2529,-0.7666,-0.5350
919490,0.2333,-0.7292,-0.6437
919503,0.2234,-0.7118,-0.6968
919517,0.2039,-0.6791,-0.7987
919548,0.1639,-0.6191,-0.9774
919561,0.1532,-0.6044,-1.0151
919589,0.1052,-0.5444,-1.1311
919599,0.0922,-0.5299,-1.1506
919614,0.0658,-0.5031,-1.1780
919626,0.0527,-0.4912,-1.1859
919641,0.0284,-0.4719,-1.1909
919655,0.0077,-0.4598,-1.1825
919665,-0.0007,-0.4567,-1.1738
919679,-0.0135,-0.4565,-1.1486
919690,-0.0177,-0.4594,-1.1323
919705,-0.0216,-0.4701,-1.0939
919717,-0.0214,-0.4778,-1.0720
919766,0.0011,-0.5438,-0.9189
919781,0.0139,-0.5695,-0.8657
919791,0.0208,-0.5824,-0.8398
919806,0.0352,-0.6075,-0.7913
919820,0.0497,-0.6315,-0.7479
919834,0.0636,-0.6533,-0.7114
919847,0.0703,-0.6633,-0.6959
919857,0.0767,-0.6726,-0.6824
919892,0.1025,-0.7078,-0.6429
919902,0.1064,-0.7125,-0.6404
919953,0.1207,-0.7263,-0.6515
919968,0.1222,-0.7262,-0.6615
919985,0.1222,-0.7242,-0.6730
920000,0.1206,-0.7209,-0.6849
920015,0.1178,-0.7164,-0.6969
920027,0.1160,-0.7137,-0.7028
920041,0.1116,-0.7080,-0.7139
920052,0.1090,-0.7048,-0.7191
920067,0.1036,-0.6985,-0.7286
920082,0.0980,-0.6920,-0.7366
920096,0.0923,-0.6860,-0.7428
920109,0.0895,-0.6831,-0.7452
920141,0.0795,-0.6735,-0.7505
920156,0.0758,-0.6702,-0.7509
920170,0.0731,-0.6680,-0.7504
920205,0.0714,-0.6674,-0.7499
920219,0.0720,-0.6687,-0.7510
920232,0.0726,-0.6698,-0.7521
920243,0.0741,-0.6724,-0.7554
920256,0.0750,-0.6740,-0.7574
920271,0.0768,-0.6772,-0.7625
920285,0.0787,-0.6809,-0.7675
920297,0.0796,-0.6827,-0.7697
920331,0.0817,-0.6901,-0.7728
920345,0.0819,-0.6935,-0.7694
920360,0.0818,-0.6969,-0.7625
920370,0.0815,-0.6985,-0.7578
920385,0.0808,-0.7015,-0.7465
920399,0.0800,-0.7042,-0.7336
920412,0.0793,-0.7054,-0.7272
920427,0.0776,-0.7070,-0.7157
920437,0.0765,-0.7075,-0.7112
920452,0.0735,-0.7074,-0.7065
920466,0.0692,-0.7061,-0.7096
920517,0.0519,-0.6993,-0.7764
920550,0.0404,-0.6973,-0.8578
920565,0.0356,-0.6971,-0.9004
920579,0.0317,-0.6970,-0.9380
920590,0.0302,-0.6969,-0.9532
920604,0.0280,-0.6968,-0.9740
920617,0.0275,-0.6969,-0.9784
920632,0.0276,-0.6986,-0.9738
920646,0.0295,-0.7030,-0.9502
921673,0.1167,-0.8214,-0.5986
921821,0.1016,-0.7834,-0.6156
921831,0.1013,-0.7825,-0.6133
921844,0.1012,-0.7823,-0.6113
921859,0.1013,-0.7823,-0.6080
921873,0.1012,-0.7825,-0.6061
921890,0.1010,-0.7823,-0.6050
921921,0.0991,-0.7804,-0.6056
921934,0.0985,-0.7795,-0.6061
921949,0.0970,-0.7777,-0.6073
921965,0.0957,-0.7758,-0.6088
921980,0.0945,-0.7742,-0.6101
922001,0.0935,-0.7732,-0.6115
922016,0.0931,-0.7728,-0.6125
922033,0.0933,-0.7731,-0.6134
922048,0.0941,-0.7742,-0.6140
922062,0.0957,-0.7760,-0.6144
922076,0.0981,-0.7786,-0.6145
922091,0.0995,-0.7802,-0.6145
922122,0.1061,-0.7878,-0.6143
922137,0.1094,-0.7920,-0.6144
922150,0.1121,-0.7955,-0.6150
922167,0.1139,-0.7983,-0.6162
922180,0.1144,-0.7994,-0.6171
922194,0.1143,-0.8008,-0.6190
922209,0.1125,-0.8011,-0.6212
922223,0.1094,-0.8007,-0.6230
922233,0.1073,-0.8000,-0.6239
922248,0.1028,-0.7983,-0.6248
922261,0.1002,-0.7974,-0.6249
922275,0.0951,-0.7952,-0.6245
922325,0.0807,-0.7894,-0.6194
922358,0.0737,-0.7882,-0.6143
922373,0.0709,-0.7885,-0.6124
922387,0.0684,-0.7891,-0.6121
922397,0.0670,-0.7893,-0.6129
922412,0.0637,-0.7896,-0.6177
922425,0.0616,-0.7893,-0.6221
922440,0.0559,-0.7876,-0.6361
922454,0.0476,-0.7842,-0.6591
922464,0.0421,-0.7815,-0.6743
922479,0.0287,-0.7743,-0.7131
922493,0.0120,-0.7642,-0.7626
922506,0.0028,-0.7578,-0.7906
922521,-0.0162,-0.7430,-0.8506
922531,-0.0254,-0.7349,-0.8809
922541,-0.0341,-0.7263,-0.9415
922556,-0.0481,-0.7094,-0.9623
922570,-0.0564,-0.6942,-0.9989
922583,-0.0574,-0.6833,-1.0134
922628,-0.0269,-0.6826,-0.9325
922643,-0.0031,-0.6927,-0.8542
922659,0.0254,-0.7079,-0.7551
922674,0.0563,-0.7269,-0.6404
922690,0.0879,-0.7493,-0.5162
922705,0.1034,-0.7743,-0.3885
922725,0.1461,-0.8018,-0.2626
922743,0.1704,-0.8308,-0.1434
922757,0.1908,-0.8604,-0.0350
922772,0.2074,-0.8885,0.0588
922828,0.2437,-0.9603,0.2487
922843,0.2467,-0.9667,0.2582
922853,0.2515,-0.9772,0.2662
922867,0.2532,-0.9813,0.2654
922881,0.2552,-0.9880,0.2552
922922,0.2533,-0.9937,0.1915
922932,0.2517,-0.9921,0.1733
922950,0.2473,-0.9847,0.1006
922965,0.2410,-0.9712,0.0840
922978,0.2327,-0.9506,0.0300
923029,0.1968,-0.8430,-0.1793
923044,0.1837,-0.7961,-0.2699
923060,0.1720,-0.7493,-0.3711
923074,0.1625,-0.7063,-0.4803
923087,0.1586,-0.6873,-0.5369
923102,0.1523,-0.6556,-0.6505
923117,0.1478,-0.6335,-0.7607
923127,0.1460,-0.6263,-0.8131
923142,0.1429,-0.6193,-0.9094
923152,0.1416,-0.6189,-0.9524
923167,0.1385,-0.6234,-1.0262
923181,0.1348,-0.6327,-1.0820
923212,0.1266,-0.6497,-1.1364
923246,0.1047,-0.6698,-1.1179
923256,0.0992,-0.6714,-1.1036
923271,0.0879,-0.6716,-1.0659
923284,0.0820,-0.6707,-1.0433
923298,0.0706,-0.6667,-0.9928
923312,0.0601,-0.6614,-0.9381
923322,0.0553,-0.6584,-0.9104
923337,0.0474,-0.6531,-0.8560
923354,0.0417,-0.6492,-0.8052
923368,0.0391,-0.6476,-0.7601
923406,0.0424,-0.6532,-0.6917
923421,0.0481,-0.6602,-0.6683
923435,0.0558,-0.6693,-0.6516
923450,0.0652,-0.6799,-0.6406
923464,0.0702,-0.6857,-0.6370
923479,0.0807,-0.6975,-0.6328
923493,0.0909,-0.7095,-0.6321
923505,0.0957,-0.7151,-0.6327
923516,0.1044,-0.7256,-0.6360
923543,0.1138,-0.7377,-0.6443
923564,0.1173,-0.7427,-0.6556
923603,0.1177,-0.7440,-0.6737
923618,0.1155,-0.7408,-0.6831
923632,0.1123,-0.7362,-0.6921
923648,0.1088,-0.7307,-0.7004
923661,0.1069,-0.7278,-0.7040
923687,0.1017,-0.7168,-0.7142
923703,0.0985,-0.7145,-0.7155
923719,0.0956,-0.7104,-0.7163
923732,0.0929,-0.7075,-0.7151
923747,0.0902,-0.7056,-0.7118
923764,0.0874,-0.7045,-0.7069
923812,0.0796,-0.7034,-0.6899
923857,0.0780,-0.7043,-0.6826
923870,0.0790,-0.7053,-0.6832
923885,0.0807,-0.7068,-0.6858
923898,0.0818,-0.7076,-0.6876
923913,0.0842,-0.7095,-0.6924
923929,0.0865,-0.7113,-0.6979
923943,0.0887,-0.7130,-0.7034
923957,0.0903,-0.7144,-0.7081
923968,0.0907,-0.7148,-0.7100
923982,0.0908,-0.7157,-0.7126
924027,0.0861,-0.7158,-0.7120
924042,0.0828,-0.7151,-0.7102
924058,0.0792,-0.7140,-0.7090
924073,0.0759,-0.7122,-0.7098
924086,0.0745,-0.7109,-0.7114
924100,0.0718,-0.7081,-0.7179
924115,0.0692,-0.7048,-0.7299
924125,0.0679,-0.7031,-0.7383
924152,0.0629,-0.6980,-0.7745
924170,0.0555,-0.6927,-0.8311
924220,0.0364,-0.6829,-0.9934
924234,0.0331,-0.6814,-1.0204
924251,0.0271,-0.6790,-1.0665
924265,0.0216,-0.6772,-1.0969
924280,0.0166,-0.6761,-1.1061
924293,0.0122,-0.6757,-1.0912
924307,0.0103,-0.6755,-1.0745
924317,0.0087,-0.6758,-1.0232
924332,0.0065,-0.6761,-0.9891
924347,0.0062,-0.6781,-0.9066
924361,0.0082,-0.6820,-0.8080
924371,0.0100,-0.6849,-0.7542
924403,0.0236,-0.7042,-0.5229
924417,0.0347,-0.7195,-0.4054
924430,0.0415,-0.7288,-0.3478
924460,0.0751,-0.7759,-0.1310
924474,0.0950,-0.8033,-0.0336
924487,0.1055,-0.8173,0.0117
924504,0.1268,-0.8450,0.0950
924518,0.1481,-0.8716,0.1669
924533,0.1686,-0.8966,0.2258
924547,0.1874,-0.9198,0.2703
924560,0.1960,-0.9307,0.2864
924570,0.2041,-0.9410,0.2982
924580,0.2181,-0.9603,0.3085
924593,0.2241,-0.9691,0.3069
924608,0.2336,-0.9846,0.2898
924622,0.2397,-0.9969,0.2550
924653,0.2410,-1.0068,0.1372
924667,0.2390,-1.0052,0.0989
924682,0.2327,-0.9965,0.0128
924698,0.2234,-0.9794,-0.0840
924714,0.2111,-0.9534,-0.1890
924729,0.1949,-0.9186,-0.3000
924743,0.1749,-0.8770,-0.4148
924770,0.1377,-0.8075,-0.5883
924781,0.1238,-0.7841,-0.6451
924792,0.0947,-0.7391,-0.7555
924807,0.0798,-0.7181,-0.8082
924821,0.0503,-0.6804,-0.9064
924835,0.0221,-0.6493,-0.9918
924883,-0.0460,-0.6006,-1.1385
924897,-0.0542,-0.5989,-1.1445
924907,-0.0676,-0.6000,-1.1410
924920,-0.0728,-0.6027,-1.1318
924936,-0.0804,-0.6113,-1.1010
924951,-0.0846,-0.6234,-1.0562
924965,-0.0858,-0.6375,-1.0016
924977,-0.0853,-0.6448,-0.9720
924995,-0.0830,-0.6595,-0.9110
925010,-0.0792,-0.6735,-0.8507
925024,-0.0748,-0.6858,-0.7946
925074,-0.0658,-0.7107,-0.6733
925101,-0.0658,-0.7161,-0.6477
925111,-0.0676,-0.7172,-0.6448
925126,-0.0690,-0.7170,-0.6477
925141,-0.0725,-0.7157,-0.6619
925155,-0.0769,-0.7130,-0.6870
925171,-0.0824,-0.7092,-0.7224
925186,-0.0889,-0.7039,-0.7665
925196,-0.0925,-0.7006,-0.7909
925211,-0.1001,-0.6923,-0.8419
925225,-0.1075,-0.6818,-0.8916
925257,-0.1165,-0.6642,-0.9513
925271,-0.1193,-0.6534,-0.9730
925286,-0.1184,-0.6459,-0.9751
925302,-0.1132,-0.6428,-0.9548
925316,-0.1027,-0.6451,-0.9120
925329,-0.0953,-0.6483,-0.8823
925344,-0.0764,-0.6592,-0.8085
925358,-0.0516,-0.6757,-0.7188
925368,-0.0372,-0.6860,-0.6693
925420,0.0668,-0.7750,-0.3544
925458,0.1538,-0.8691,-0.1414
925473,0.1819,-0.9054,-0.0844
925485,0.1936,-0.9224,-0.0629
925496,0.2119,-0.9531,-0.0344
925509,0.2180,-0.9667,-0.0272
925524,0.2239,-0.9896,-0.0259
925537,0.2209,-1.0066,-0.0402
925550,0.2162,-1.0127,-0.0524
925561,0.2004,-1.0198,-0.0851
925576,0.1897,-1.0209,-0.1047
925590,0.1633,-1.0183,-0.1489
925604,0.1320,-1.0103,-0.1969
925619,0.0975,-0.9978,-0.2458
925629,0.0798,-0.9904,-0.2697
925639,0.0623,-0.9823,-0.2927
925654,0.0283,-0.9650,-0.3353
925668,-0.0026,-0.9475,-0.3716
925681,-0.0162,-0.9391,-0.3868
925737,-0.0691,-0.8997,-0.4247
925760,-0.0670,-0.8948,-0.4014
925773,-0.0636,-0.8944,-0.3887
925788,-0.0536,-0.8953,-0.3569
925802,-0.0402,-0.8975,-0.3187
925818,-0.0244,-0.9004,-0.2767
925833,-0.0078,-0.9039,-0.2343
925844,0.0006,-0.9058,-0.2140
925859,0.0168,-0.9097,-0.1774
925873,0.0319,-0.9135,-0.1483
925921,0.0643,-0.9185,-0.1200
925936,0.0677,-0.9176,-0.1233
925946,0.0735,-0.9146,-0.1346
925960,0.0759,-0.9124,-0.1420
925974,0.0803,-0.9066,-0.1586
925988,0.0850,-0.9000,-0.1758
926021,0.0983,-0.8866,-0.2054
926031,0.1030,-0.8838,-0.2112
926049,0.1146,-0.8792,-0.2212
926063,0.1295,-0.8759,-0.2308
926078,0.1477,-0.8726,-0.2437
926129,0.2080,-0.8470,-0.3444
926144,0.2230,-0.8282,-0.4104
926160,0.2321,-0.8029,-0.4945
926173,0.2339,-0.7878,-0.5428
926188,0.2317,-0.7540,-0.6490
926202,0.2217,-0.7173,-0.7628
926214,0.2139,-0.6986,-0.8199
926225,0.1934,-0.6631,-0.9294
926238,0.1810,-0.6469,-0.9796
926249,0.1536,-0.6195,-1.0664
926262,0.1390,-0.6086,-1.1016
926277,0.1095,-0.5933,-1.1525
926309,0.0570,-0.5862,-1.1731
926337,0.0304,-0.5970,-1.1240
926354,0.0206,-0.6091,-1.0675
926369,0.0173,-0.6235,-0.9984
926383,0.0201,-0.6393,-0.9225
926397,0.0283,-0.6552,-0.8458
926410,0.0339,-0.6628,-0.8091
926420,0.0403,-0.6772,-0.7415
926435,0.0549,-0.6840,-0.7115
926453,0.0784,-0.7017,-0.6410
926468,0.0858,-0.7068,-0.6243
926506,0.1161,-0.7264,-0.5894
926521,0.1235,-0.7312,-0.5945
926533,0.1262,-0.7329,-0.6000
926550,0.1296,-0.7350,-0.6154
926565,0.1309,-0.7354,-0.6346
926579,0.1301,-0.7345,-0.6554
926593,0.1281,-0.7325,-0.6757
926606,0.1266,-0.7313,-0.6851
926616,0.1249,-0.7299,-0.6937
926643,0.1174,-0.7233,-0.7191
926664,0.1140,-0.7197,-0.7257
926703,0.1068,-0.7123,-0.7249
926717,0.1042,-0.7103,-0.7192
926732,0.1014,-0.7089,-0.7117
926749,0.0985,-0.7079,-0.7036
926762,0.0969,-0.7075,-0.6996
926777,0.0941,-0.7070,-0.6924
926791,0.0916,-0.7069,-0.6866
926806,0.0897,-0.7072,-0.6829
926816,0.0892,-0.7075,-0.6818
926831,0.0887,-0.7085,-0.6809
926844,0.0887,-0.7091,-0.6813
926862,0.0902,-0.7113,-0.6841
926918,0.0958,-0.7153,-0.6917
926945,0.0988,-0.7167,-0.6931
926955,0.0990,-0.7167,-0.6930
926970,0.0985,-0.7162,-0.6927
926982,0.0977,-0.7156,-0.6929
926997,0.0950,-0.7131,-0.6951
927011,0.0906,-0.7091,-0.7012
927021,0.0878,-0.7065,-0.7065
927036,0.0811,-0.7001,-0.7235
927051,0.0735,-0.6924,-0.7507
927067,0.0652,-0.6841,-0.7900
927117,0.0402,-0.6573,-0.9650
927133,0.0328,-0.6498,-1.0271
927153,0.0269,-0.6439,-1.0803
927168,0.0228,-0.6401,-1.1183
927182,0.0211,-0.6383,-1.1359
927195,0.0212,-0.6383,-1.1357
927212,0.0239,-0.6399,-1.1171
927258,0.0525,-0.6619,-0.9192
927299,0.0962,-0.7025,-0.6377
927312,0.1157,-0.7240,-0.5114
927327,0.1252,-0.7357,-0.4476
927337,0.1438,-0.7603,-0.3219
927351,0.1525,-0.7729,-0.2610
927365,0.1683,-0.7985,-0.1458
927379,0.1821,-0.8232,-0.0422
927392,0.1881,-0.8353,0.0042
927402,0.1981,-0.8588,0.0848
927416,0.2021,-0.8702,0.1187
927431,0.2083,-0.8928,0.1726
927446,0.2119,-0.9150,0.2078
927462,0.2139,-0.9364,0.2240
927480,0.2145,-0.9561,0.2225
927494,0.2142,-0.9725,0.2054
927509,0.2130,-0.9845,0.1760
927546,0.2063,-0.9877,0.0942
927573,0.1985,-0.9667,0.0197
927590,0.1934,-0.9236,-0.0707
927604,0.1892,-0.9044,-0.1058
927619,0.1866,-0.8600,-0.1858
927633,0.1857,-0.8090,-0.2809
927645,0.1857,-0.7819,-0.3346
927656,0.1859,-0.7264,-0.4541
927670,0.1859,-0.6990,-0.5193
927687,0.1849,-0.6464,-0.6577
927702,0.1820,-0.5995,-0.8014
927750,0.1583,-0.5135,-1.1754
927765,0.1460,-0.5046,-1.2537
927788,0.1249,-0.5068,-1.3104
927801,0.1176,-0.5109,-1.3130
927816,0.1033,-0.5222,-1.2954
927831,0.0902,-0.5367,-1.2513
927847,0.0795,-0.5531,-1.1865
927874,0.0693,-0.5792,-1.0654
927892,0.0673,-0.5968,-0.9784
927948,0.0884,-0.6548,-0.7201
927963,0.1001,-0.6689,-0.6730
927973,0.1064,-0.6754,-0.6545
927987,0.1195,-0.6873,-0.6277
928002,0.1323,-0.6973,-0.6132
928017,0.1443,-0.7053,-0.6095
928032,0.1550,-0.7112,-0.6146
928047,0.1598,-0.7134,-0.6198
928062,0.1677,-0.7161,-0.6339
928076,0.1736,-0.7168,-0.6512
928093,0.1771,-0.7158,-0.6698
928137,0.1772,-0.7084,-0.7113
928152,0.1748,-0.7040,-0.7231
928179,0.1696,-0.6953,-0.7360
928191,0.1658,-0.6934,-0.7369
928205,0.1622,-0.6901,-0.7368
928218,0.1606,-0.6886,-0.7358
928233,0.1578,-0.6863,-0.7323
928249,0.1555,-0.6843,-0.7275
928263,0.1537,-0.6830,-0.7220
928277,0.1525,-0.6820,-0.7166
928297,0.1517,-0.6816,-0.7119
928336,0.1516,-0.6830,-0.7051
928350,0.1517,-0.6835,-0.7046
928365,0.1519,-0.6843,-0.7043
928381,0.1516,-0.6851,-0.7050
928395,0.1512,-0.6852,-0.7061
928410,0.1506,-0.6849,-0.7075
928422,0.1504,-0.6847,-0.7085
928437,0.1497,-0.6838,-0.7103
928447,0.1494,-0.6835,-0.7114
928482,0.1483,-0.6813,-0.7168
928500,0.1481,-0.6804,-0.7186
928531,0.1476,-0.6793,-0.7219
928546,0.1475,-0.6791,-0.7228
928560,0.1471,-0.6786,-0.7249
928571,0.1469,-0.6785,-0.7262
928586,0.1462,-0.6777,-0.7301
928600,0.1454,-0.6766,-0.7368
928614,0.1442,-0.6748,-0.7480
928627,0.1433,-0.6736,-0.7561
928637,0.1422,-0.6721,-0.7661
928651,0.1392,-0.6683,-0.7932
928666,0.1348,-0.6633,-0.8311
928680,0.1289,-0.6572,-0.8801
928692,0.1254,-0.6537,-0.9087
928726,0.1094,-0.6381,-1.0403
928741,0.1012,-0.6298,-1.1068
928756,0.0935,-0.6213,-1.1642
928796,0.0822,-0.6034,-1.2222
928811,0.0830,-0.5991,-1.1985
928827,0.0878,-0.5981,-1.1454
928840,0.0917,-0.5992,-1.1084
928858,0.1022,-0.6052,-0.9603
928873,0.1157,-0.6168,-0.9005
928889,0.1307,-0.6346,-0.7698
928907,0.1458,-0.6582,-0.5569
928922,0.1593,-0.6868,-0.4846
928936,0.1703,-0.7186,-0.3424
928991,0.1875,-0.8221,0.0669
929004,0.1882,-0.8334,0.1088
929015,0.1892,-0.8525,0.1783
929028,0.1898,-0.8607,0.2062
929043,0.1912,-0.8756,0.2482
929058,0.1934,-0.8893,0.2725
929085,0.1985,-0.9094,0.2775
929095,0.2008,-0.9163,0.2710
929113,0.2094,-0.9358,0.2295
929126,0.2125,-0.9417,0.2087
929141,0.2191,-0.9519,0.1584
929191,0.2300,-0.9635,-0.0463
929206,0.2279,-0.9592,-0.1251
929226,0.2224,-0.9501,-0.2369
929241,0.2131,-0.9352,-0.2855
929254,0.2002,-0.9146,-0.3628
929269,0.1840,-0.8884,-0.4359
929284,0.1649,-0.8575,-0.5044
929299,0.1547,-0.8408,-0.5369
929316,0.1331,-0.8049,-0.6296
929331,0.1107,-0.7668,-0.6561
929379,0.0447,-0.6495,-0.8119
929418,-0.0017,-0.5684,-0.9189
929428,-0.0092,-0.5564,-0.9370
929443,-0.0222,-0.5380,-0.9691
929457,-0.0326,-0.5273,-0.9954
929470,-0.0369,-0.5248,-1.0061
929485,-0.0437,-0.5250,-1.0229
929495,-0.0464,-0.5273,-1.0288
929510,-0.0507,-0.5355,-1.0355
929520,-0.0522,-0.5408,-1.0363
929535,-0.0544,-0.5531,-1.0322
929549,-0.0553,-0.5664,-1.0209
929580,-0.0511,-0.5924,-0.9789
929593,-0.0487,-0.5983,-0.9651
929608,-0.0422,-0.6091,-0.9346
929624,-0.0338,-0.6189,-0.9014
929639,-0.0238,-0.6279,-0.8669
929652,-0.0127,-0.6364,-0.8326
929666,-0.0070,-0.6406,-0.8159
929680,0.0045,-0.6489,-0.7847
929703,0.0211,-0.6613,-0.7445
929721,0.0309,-0.6688,-0.7234
929736,0.0388,-0.6759,-0.7073
929785,0.0487,-0.6919,-0.6832
929800,0.0476,-0.6956,-0.6805
929823,0.0453,-0.6987,-0.6793
929838,0.0425,-0.7019,-0.6788
929853,0.0399,-0.7053,-0.6783
929868,0.0378,-0.7094,-0.6777
929884,0.0369,-0.7142,-0.6766
929898,0.0367,-0.7197,-0.6748
929912,0.0371,-0.7227,-0.6736
929926,0.0381,-0.7286,-0.6702
929941,0.0397,-0.7343,-0.6655
929989,0.0453,-0.7482,-0.6451
930023,0.0479,-0.7545,-0.6299
930033,0.0482,-0.7560,-0.6263
930048,0.0486,-0.7585,-0.6199
930062,0.0488,-0.7610,-0.6144
930075,0.0490,-0.7622,-0.6119
930089,0.0494,-0.7649,-0.6082
930099,0.0499,-0.7665,-0.6066
930114,0.0520,-0.7704,-0.6044
930124,0.0535,-0.7728,-0.6035
930139,0.0576,-0.7787,-0.6027
930153,0.0630,-0.7859,-0.6024
930196,0.0775,-0.8043,-0.6040
930211,0.0813,-0.8091,-0.6051
930227,0.0833,-0.8114,-0.6061
930241,0.0831,-0.8110,-0.6072
930255,0.0823,-0.8099,-0.6078
930269,0.0792,-0.8063,-0.6096
930284,0.0743,-0.8011,-0.6123
930296,0.0715,-0.7981,-0.6141
930334,0.0531,-0.7797,-0.6285
930344,0.0491,-0.7759,-0.6326
930383,0.0295,-0.7595,-0.6603
930398,0.0225,-0.7545,-0.6775
930411,0.0192,-0.7523,-0.6880
930428,0.0133,-0.7480,-0.7139
930443,0.0085,-0.7444,-0.7468
930457,0.0051,-0.7412,-0.7866
930471,0.0035,-0.7391,-0.8317
930484,0.0037,-0.7386,-0.8551
930494,0.0043,-0.7385,-0.8784
930509,0.0078,-0.7397,-0.9214
930523,0.0142,-0.7428,-0.9536
930537,0.0232,-0.7477,-0.9678
930547,0.0286,-0.7506,-0.9663
930579,0.0548,-0.7640,-0.8984
930594,0.0698,-0.7711,-0.8280
930629,0.1007,-0.7871,-0.6302
930639,0.1082,-0.7922,-0.5725
930654,0.1219,-0.8043,-0.4525
930668,0.1344,-0.8198,-0.3315
930681,0.1400,-0.8287,-0.2728
930695,0.1501,-0.8486,-0.1626
930705,0.1548,-0.8593,-0.1123
930719,0.1632,-0.8810,-0.0238
930734,0.1704,-0.9022,0.0471
930751,0.1760,-0.9218,0.1000
930790,0.1830,-0.9550,0.1615
930803,0.1835,-0.9580,0.1637
930817,0.1838,-0.9603,0.1602
930834,0.1837,-0.9580,0.1472
930849,0.1832,-0.9519,0.1266
930861,0.1829,-0.9478,0.1138
930876,0.1818,-0.9374,0.0835
930891,0.1801,-0.9238,0.0472
930901,0.1790,-0.9155,0.0267
930915,0.1766,-0.8945,-0.0206
930942,0.1729,-0.8496,-0.1128
930953,0.1699,-0.8092,-0.1923
931001,0.1594,-0.6777,-0.4534
931016,0.1520,-0.6200,-0.5768
931026,0.1475,-0.5919,-0.6410
931041,0.1371,-0.5399,-0.7715
931055,0.1260,-0.4965,-0.9010
931069,0.1147,-0.4641,-1.0238
931082,0.1093,-0.4526,-1.0808
931092,0.1041,-0.4395,-1.1824
931106,0.0951,-0.4377,-1.2256
931122,0.0879,-0.4429,-1.2938
931136,0.0829,-0.4580,-1.3352
931189,0.0798,-0.5332,-1.2913
931204,0.0817,-0.5592,-1.2279
931214,0.0828,-0.5712,-1.1895
931249,0.0872,-0.6178,-0.9611
931262,0.0875,-0.6244,-0.9136
931279,0.0874,-0.6357,-0.8228
931294,0.0868,-0.6450,-0.7416
931308,0.0859,-0.6533,-0.6740
931323,0.0853,-0.6610,-0.6223
931343,0.0857,-0.6688,-0.5874
931361,0.0872,-0.6765,-0.5690
931375,0.0900,-0.6841,-0.5651
931390,0.0941,-0.6913,-0.5734
931428,0.1085,-0.7059,-0.6283
931442,0.1117,-0.7083,-0.6422
931457,0.1179,-0.7118,-0.6700
931473,0.1235,-0.7142,-0.6962
931487,0.1277,-0.7153,-0.7186
931502,0.1299,-0.7151,-0.7361
931515,0.1302,-0.7144,-0.7428
931550,0.1256,-0.7074,-0.7554
931560,0.1202,-0.7017,-0.7545
931573,0.1169,-0.6984,-0.7529
931588,0.1097,-0.6913,-0.7483
931602,0.1025,-0.6838,-0.7434
931617,0.0962,-0.6769,-0.7395
931649,0.0879,-0.6670,-0.7384
931663,0.0868,-0.6658,-0.7397
931677,0.0859,-0.6648,-0.7445
931693,0.0863,-0.6660,-0.7516
931708,0.0875,-0.6688,-0.7606
931720,0.0881,-0.6708,-0.7657
931735,0.0894,-0.6749,-0.7770
931748,0.0897,-0.6791,-0.7899
931759,0.0894,-0.6808,-0.7972
931777,0.0870,-0.6832,-0.8145
931803,0.0790,-0.6831,-0.8485
931812,0.0703,-0.6803,-0.8779
931847,0.0463,-0.6687,-0.9537
931875,0.0242,-0.6553,-1.0222
931885,0.0166,-0.6500,-1.0682
931901,0.0021,-0.6387,-1.0896
931917,-0.0103,-0.6273,-1.1251
931933,-0.0193,-0.6174,-1.1461
931948,-0.0244,-0.6107,-1.1469
931958,-0.0254,-0.6093,-1.1381
931974,-0.0237,-0.6107,-1.1007
931985,-0.0172,-0.6194,-1.0360
932001,-0.0059,-0.6357,-0.9456
932057,0.0681,-0.7390,-0.4894
932073,0.0820,-0.7561,-0.4172
932083,0.1118,-0.7885,-0.2766
932097,0.1277,-0.8030,-0.2097
932111,0.1606,-0.8274,-0.0864
932126,0.1946,-0.8447,0.0193
932140,0.2279,-0.8547,0.1046
932150,0.2438,-0.8572,0.1389
932188,0.2983,-0.8541,0.2194
932198,0.3187,-0.8479,0.2274
932249,0.3452,-0.8318,0.1621
932264,0.3419,-0.8311,0.1248
932280,0.3330,-0.8339,0.0852
932293,0.3269,-0.8367,0.0651
932308,0.3121,-0.8450,0.0240
932322,0.2953,-0.8558,-0.0183
932337,0.2780,-0.8677,-0.0637
932347,0.2695,-0.8732,-0.0883
932362,0.2534,-0.8815,-0.1421
932374,0.2458,-0.8837,-0.1720
932389,0.2317,-0.8826,-0.2391
932399,0.2249,-0.8789,-0.2770
932430,0.1976,-0.8403,-0.4628
932445,0.1829,-0.8069,-0.5770
932459,0.1669,-0.7656,-0.7025
932486,0.1401,-0.6957,-0.8993
932498,0.1306,-0.6722,-0.9635
932513,0.1111,-0.6282,-1.0836
932527,0.0916,-0.5907,-1.1860
932541,0.0723,-0.5619,-1.2640
932556,0.0629,-0.5510,-1.2921
932570,0.0444,-0.5358,-1.3250
932585,0.0264,-0.5281,-1.3262
932602,0.0088,-0.5264,-1.2976
932641,-0.0304,-0.5378,-1.1273
932656,-0.0422,-0.5464,-1.0369
932669,-0.0468,-0.5513,-0.9904
932680,-0.0527,-0.5625,-0.8989
932694,-0.0540,-0.5688,-0.8553
932708,-0.0526,-0.5829,-0.7756
932723,-0.0465,-0.5986,-0.7084
932735,-0.0419,-0.6071,-0.6801
932746,-0.0295,-0.6246,-0.6346
932759,-0.0222,-0.6335,-0.6176
932787,0.0118,-0.6682,-0.5842
932805,0.0298,-0.6837,-0.5857
932836,0.0630,-0.7087,-0.6144
932849,0.0702,-0.7134,-0.6252
932864,0.0828,-0.7207,-0.6495
932880,0.0928,-0.7253,-0.6754
932895,0.0999,-0.7275,-0.7013
932910,0.1040,-0.7275,-0.7252
932923,0.1050,-0.7268,-0.7361
932936,0.1050,-0.7242,-0.7548
932947,0.1041,-0.7223,-0.7623
932961,0.1006,-0.7174,-0.7734
932975,0.0951,-0.7112,-0.7792
932988,0.0918,-0.7076,-0.7800
933010,0.0800,-0.6960,-0.7753
933058,0.0540,-0.6738,-0.7444
933093,0.0405,-0.6639,-0.7212
933103,0.0382,-0.6621,-0.7163
933118,0.0350,-0.6594,-0.7089
933132,0.0342,-0.6582,-0.7042
933144,0.0345,-0.6582,-0.7031
933159,0.0371,-0.6595,-0.7031
933169,0.0392,-0.6610,-0.7041
933184,0.0448,-0.6653,-0.7078
933198,0.0520,-0.6713,-0.7129
933208,0.0559,-0.6747,-0.7157
933223,0.0643,-0.6820,-0.7212
933266,0.0830,-0.6995,-0.7288
933281,0.0876,-0.7043,-0.7278
933297,0.0900,-0.7073,-0.7246
933312,0.0897,-0.7081,-0.7198
933324,0.0887,-0.7076,-0.7172
933339,0.0852,-0.7052,-0.7115
933352,0.0801,-0.7008,-0.7064
933363,0.0770,-0.6980,-0.7045
933398,0.0648,-0.6852,-0.7021
933416,0.0581,-0.6765,-0.7074
933448,0.0551,-0.6714,-0.7487
933462,0.0553,-0.6705,-0.7251
933477,0.0571,-0.6716,-0.7323
933487,0.0586,-0.6727,-0.7354
933503,0.0621,-0.6757,-0.7401
933519,0.0662,-0.6792,-0.7426
933535,0.0701,-0.6829,-0.7428
933555,0.0747,-0.6875,-0.7406
933570,0.0756,-0.6886,-0.7397
933586,0.0763,-0.6901,-0.7385
933602,0.0754,-0.6903,-0.7385
933644,0.0686,-0.6859,-0.7462
933660,0.0652,-0.6832,-0.7476
933675,0.0619,-0.6808,-0.7490
933723,0.0571,-0.6799,-0.7352
933731,0.0574,-0.6810,-0.7297
933749,0.0588,-0.6841,-0.7163
933764,0.0615,-0.6882,-0.7003
933780,0.0651,-0.6935,-0.6833
933795,0.0693,-0.6993,-0.6667
933814,0.0739,-0.7053,-0.6520
933851,0.0844,-0.7178,-0.6315
933867,0.0875,-0.7207,-0.6313
933884,0.0898,-0.7222,-0.6360
933900,0.0912,-0.7223,-0.6451
933916,0.0914,-0.7213,-0.6591
933932,0.0906,-0.7191,-0.6782
933950,0.0883,-0.7155,-0.7037
933963,0.0864,-0.7131,-0.7194
933978,0.0815,-0.7069,-0.7570
934000,0.0707,-0.6938,-0.8312
934018,0.0613,-0.6825,-0.8916
934029,0.0508,-0.6691,-0.9579
934045,0.0455,-0.6617,-1.0231
934061,0.0353,-0.6465,-1.0582
934117,0.0175,-0.6005,-1.1984
934133,0.0215,-0.5947,-1.1917
934143,0.0256,-0.5940,-1.1785
934159,0.0383,-0.5980,-1.1321
934175,0.0570,-0.6096,-1.0592
934190,0.0806,-0.6282,-0.9620
934207,0.1073,-0.6525,-0.8444
934223,0.1353,-0.6805,-0.7117
934233,0.1489,-0.6953,-0.6417
934248,0.1744,-0.7251,-0.4987
934264,0.1962,-0.7542,-0.3568
934307,0.2272,-0.8263,0.0068
934342,0.2290,-0.8628,0.1622
934352,0.2273,-0.8715,0.1886
934368,0.2229,-0.8890,0.2271
934384,0.2185,-0.9071,0.2473
934400,0.2152,-0.9253,0.2510
934418,0.2140,-0.9427,0.2400
934437,0.2152,-0.9584,0.2163
934453,0.2185,-0.9707,0.1825
934468,0.2230,-0.9780,0.1407
934518,0.2324,-0.9591,-0.0128
934533,0.2313,-0.9384,-0.0697
934553,0.2242,-0.8956,-0.1599
934568,0.2203,-0.8787,-0.1919
934583,0.2101,-0.8413,-0.2596
934598,0.1963,-0.8002,-0.3334
934616,0.1794,-0.7567,-0.4142
934644,0.1405,-0.6725,-0.5973
934654,0.1307,-0.6539,-0.6467
934670,0.1127,-0.6219,-0.7478
934702,0.0858,-0.5825,-0.9458
934718,0.0784,-0.5750,-1.0342
934734,0.0750,-0.5743,-1.1099
934744,0.0747,-0.5763,-1.1418
934760,0.0765,-0.5834,-1.1918
934776,0.0808,-0.5934,-1.2218
934792,0.0865,-0.6049,-1.2311
934810,0.0930,-0.6160,-1.2205
934826,0.0995,-0.6256,-1.1917
934842,0.1051,-0.6332,-1.1478
934860,0.1094,-0.6385,-1.0922
934899,0.1133,-0.6451,-0.9282
934914,0.1124,-0.6467,-0.8628
934949,0.1088,-0.6511,-0.7491
934959,0.1077,-0.6527,-0.7256
934974,0.1052,-0.6562,-0.6852
934988,0.1027,-0.6604,-0.6536
935004,0.1002,-0.6649,-0.6300
935022,0.0977,-0.6694,-0.6141
935038,0.0953,-0.6737,-0.6049
935054,0.0931,-0.6775,-0.6016
935065,0.0922,-0.6792,-0.6019
935122,0.0903,-0.6859,-0.6349
935137,0.0920,-0.6865,-0.6515
935147,0.0933,-0.6868,-0.6604
935163,0.0964,-0.6871,-0.6792
935179,0.1002,-0.6877,-0.6984
935195,0.1044,-0.6884,-0.7169
935213,0.1086,-0.6890,-0.7339
935229,0.1127,-0.6895,-0.7485
935257,0.1189,-0.6898,-0.7672
935271,0.1200,-0.6898,-0.7693
935316,0.1206,-0.6876,-0.7611
935331,0.1187,-0.6858,-0.7526
935347,0.1160,-0.6832,-0.7426
935362,0.1144,-0.6818,-0.7374
935377,0.1110,-0.6785,-0.7277
935391,0.1078,-0.6749,-0.7191
935407,0.1051,-0.6719,-0.7125
935417,0.1041,-0.6707,-0.7101
935433,0.1031,-0.6693,-0.7070
935449,0.1036,-0.6696,-0.7063
935465,0.1055,-0.6714,-0.7073
935481,0.1085,-0.6746,-0.7092
935513,0.1162,-0.6836,-0.7135
935528,0.1200,-0.6884,-0.7145
935575,0.1257,-0.6967,-0.7123
935588,0.1261,-0.6978,-0.7103
935604,0.1255,-0.6975,-0.7086
935620,0.1240,-0.6959,-0.7078
935636,0.1222,-0.6932,-0.7080
935646,0.1212,-0.6917,-0.7086
935662,0.1193,-0.6882,-0.7111
935680,0.1176,-0.6849,-0.7147
935696,0.1163,-0.6821,-0.7195
935736,0.1156,-0.6793,-0.7314
935751,0.1162,-0.6798,-0.7346
935766,0.1171,-0.6809,-0.7361
935776,0.1174,-0.6815,-0.7363
935792,0.1182,-0.6829,-0.7357
935807,0.1184,-0.6840,-0.7349
935826,0.1180,-0.6848,-0.7347
935835,0.1176,-0.6849,-0.7354
935850,0.1158,-0.6849,-0.7390
935878,0.1123,-0.6835,-0.7635
935889,0.1093,-0.6815,-0.7749
935928,0.0980,-0.6713,-0.8729
935943,0.0956,-0.6682,-0.9001
935959,0.0908,-0.6614,-0.9592
935969,0.0867,-0.6538,-1.0204
935984,0.0847,-0.6499,-1.0499
936000,0.0811,-0.6421,-1.1024
936016,0.0773,-0.6349,-1.1410
936033,0.0729,-0.6288,-1.1598
936049,0.0675,-0.6244,-1.1552
936065,0.0614,-0.6224,-1.1256
936081,0.0551,-0.6232,-1.0714
936092,0.0493,-0.6267,-0.9950
936140,0.0427,-0.6553,-0.6732
936155,0.0435,-0.6631,-0.6124
936185,0.0513,-0.7046,-0.3711
936201,0.0579,-0.7316,-0.2587
936216,0.0665,-0.7622,-0.1558
936226,0.0718,-0.7786,-0.1086
936242,0.0839,-0.8125,-0.0242
936257,0.0985,-0.8462,0.0469
936272,0.1156,-0.8782,0.1042
936290,0.1345,-0.9069,0.1487
936301,0.1443,-0.9200,0.1664
936317,0.1639,-0.9434,0.1934
936333,0.1824,-0.9628,0.2102
936384,0.2180,-0.9926,0.2026
936400,0.2208,-0.9912,0.1801
936418,0.2186,-0.9836,0.1272
936434,0.2118,-0.9700,0.1046
936450,0.2010,-0.9506,0.0525
936496,0.1550,-0.8657,-0.1508
936530,0.1224,-0.7975,-0.3109
936546,0.1071,-0.7609,-0.3953
936561,0.0925,-0.7223,-0.4827
936571,0.0856,-0.7025,-0.5276
936586,0.0723,-0.6633,-0.6198
936601,0.0607,-0.6271,-0.7144
936617,0.0524,-0.5973,-0.8099
936634,0.0487,-0.5774,-0.9039
936649,0.0503,-0.5686,-0.9926
936665,0.0569,-0.5704,-1.0714
936681,0.0673,-0.5808,-1.1361
936702,0.0797,-0.5963,-1.1829
936713,0.0924,-0.6140,-1.2091
936729,0.0983,-0.6227,-1.2142
936745,0.1080,-0.6388,-1.2081
936784,0.1165,-0.6665,-1.1099
936819,0.1073,-0.6763,-0.9392
936829,0.0996,-0.6786,-0.9026
936845,0.0912,-0.6802,-0.8312
936861,0.0833,-0.6814,-0.7654
936876,0.0797,-0.6821,-0.7357
936894,0.0721,-0.6851,-0.6626
936910,0.0701,-0.6877,-0.6288
936920,0.0699,-0.6893,-0.6166
936935,0.0718,-0.6930,-0.6006
936949,0.0735,-0.6951,-0.5967
936980,0.0848,-0.7048,-0.6022
937000,0.0957,-0.7128,-0.6205
937015,0.0994,-0.7153,-0.6278
937025,0.1062,-0.7201,-0.6428
937039,0.1094,-0.7222,-0.6500
937054,0.1146,-0.7256,-0.6632
937069,0.1184,-0.7279,-0.6740
937087,0.1202,-0.7291,-0.6820
937115,0.1184,-0.7279,-0.6906
937129,0.1169,-0.7268,-0.6917
937145,0.1134,-0.7238,-0.6931
937193,0.1039,-0.7123,-0.7000
937209,0.1023,-0.7092,-0.7040
937219,0.1018,-0.7081,-0.7063
937235,0.1014,-0.7068,-0.7112
937251,0.1016,-0.7062,-0.7156
937267,0.1019,-0.7059,-0.7189
937285,0.1021,-0.7057,-0.7203
937301,0.1019,-0.7053,-0.7195
937317,0.1014,-0.7048,-0.7161
937327,0.1003,-0.7045,-0.7107
937343,0.0997,-0.7045,-0.7041
937386,0.0962,-0.7051,-0.6938
937421,0.0948,-0.7047,-0.7114
937431,0.0944,-0.7040,-0.7219
937446,0.0933,-0.7019,-0.7513
937461,0.0913,-0.6985,-0.7924
937477,0.0885,-0.6935,-0.8430
937494,0.0845,-0.6868,-0.8997
937509,0.0793,-0.6779,-0.9572
937525,0.0731,-0.6667,-1.0099
937535,0.0696,-0.6604,-1.0326
937551,0.0619,-0.6465,-1.0676
937582,0.0442,-0.6184,-1.0831
937598,0.0349,-0.6079,-1.0605
937614,0.0262,-0.6021,-1.0190
937624,0.0223,-0.6013,-0.9921
937640,0.0161,-0.6050,-0.9280
937656,0.0128,-0.6157,-0.8536
937672,0.0132,-0.6334,-0.7729
937690,0.0176,-0.6575,-0.6893
937726,0.0370,-0.7218,-0.5248
937736,0.0497,-0.7599,-0.4485
937777,0.0826,-0.8563,-0.2894
937792,0.0889,-0.8733,-0.2643
937807,0.1005,-0.9026,-0.2207
937817,0.1060,-0.9148,-0.2019
937844,0.1241,-0.9453,-0.1422
937853,0.1277,-0.9486,-0.1299
937868,0.1337,-0.9507,-0.1068
937884,0.1383,-0.9480,-0.0847
937898,0.1403,-0.9454,-0.0739
937914,0.1439,-0.9397,-0.0525
937930,0.1473,-0.9348,-0.0322
937964,0.1554,-0.9337,0.0011
937980,0.1599,-0.9377,0.0114
937996,0.1641,-0.9429,0.0157
938012,0.1674,-0.9474,0.0134
938051,0.1698,-0.9432,-0.0234
938069,0.1683,-0.9313,-0.0511
938085,0.1655,-0.9121,-0.0867
938101,0.1615,-0.8861,-0.1304
938117,0.1566,-0.8545,-0.1824
938135,0.1511,-0.8187,-0.2427
938146,0.1451,-0.7803,-0.3107
938161,0.1422,-0.7606,-0.3475
938177,0.1370,-0.7218,-0.4271
938193,0.1333,-0.6852,-0.5155
938242,0.1398,-0.6072,-0.8282
938257,0.1494,-0.5977,-0.9377
938267,0.1555,-0.5967,-0.9902
938282,0.1699,-0.6022,-1.0863
938297,0.1863,-0.6163,-1.1650
938312,0.2028,-0.6370,-1.2208
938350,0.2301,-0.7168,-1.2411
938360,0.2383,-0.7076,-1.2247
938376,0.2419,-0.7257,-1.1742
938427,0.2263,-0.7482,-0.9310
938443,0.2147,-0.7463,-0.8412
938461,0.2018,-0.7413,-0.7572
938477,0.1882,-0.7345,-0.6836
938493,0.1750,-0.7271,-0.6233
938509,0.1630,-0.7198,-0.5779
938524,0.1522,-0.7139,-0.5474
938534,0.1475,-0.7114,-0.5374
938550,0.1394,-0.7078,-0.5269
938568,0.1332,-0.7057,-0.5270
938583,0.1288,-0.7050,-0.5352
938623,0.1250,-0.7070,-0.5767
938651,0.1265,-0.7092,-0.6071
938669,0.1299,-0.7111,-0.6372
938684,0.1313,-0.7114,-0.6467
938700,0.1348,-0.7122,-0.6649
938716,0.1384,-0.7128,-0.6813
938734,0.1423,-0.7131,-0.6957
938750,0.1460,-0.7136,-0.7079
938766,0.1494,-0.7141,-0.7177
938780,0.1523,-0.7147,-0.7247
938820,0.1565,-0.7158,-0.7302
938829,0.1566,-0.7158,-0.7292
938845,0.1561,-0.7155,-0.7252
938866,0.1532,-0.7142,-0.7153
938881,0.1519,-0.7136,-0.7113
938897,0.1483,-0.7124,-0.7025
938913,0.1444,-0.7109,-0.6938
938930,0.1405,-0.7095,-0.6859
938958,0.1344,-0.7070,-0.6758
938974,0.1328,-0.7065,-0.6742
938984,0.1326,-0.7065,-0.6743
939015,0.1337,-0.7089,-0.6801
939028,0.1344,-0.7097,-0.6826
939043,0.1362,-0.7118,-0.6886
939060,0.1382,-0.7139,-0.6953
939075,0.1398,-0.7155,-0.7029
939091,0.1407,-0.7166,-0.7118
939107,0.1407,-0.7168,-0.7229
939125,0.1392,-0.7161,-0.7379
939141,0.1359,-0.7145,-0.7577
939157,0.1307,-0.7119,-0.7828
939173,0.1241,-0.7085,-0.8131
939232,0.0946,-0.6921,-0.9377
939260,0.0762,-0.6786,-0.9935
939270,0.0714,-0.6749,-1.0026
939286,0.0620,-0.6676,-1.0132
939302,0.0526,-0.6608,-1.0134
939318,0.0433,-0.6550,-1.0035
939336,0.0348,-0.6506,-0.9841
939351,0.0280,-0.6481,-0.9558
939366,0.0238,-0.6475,-0.9182
939379,0.0231,-0.6482,-0.8955
939432,0.0515,-0.6771,-0.6537
939445,0.0609,-0.6858,-0.6082
939463,0.0972,-0.7196,-0.4611
939479,0.1117,-0.7487,-0.3586
939495,0.1436,-0.7648,-0.3071
939511,0.1779,-0.7992,-0.2043
939529,0.2297,-0.8527,-0.0553
939544,0.2458,-0.8699,0.0538
939572,0.2988,-0.9316,0.1493
939590,0.3162,-0.9580,0.2057
939601,0.3223,-0.9698,0.2273
939617,0.3290,-0.9911,0.2560
939633,0.3285,-1.0079,0.2639
939684,0.2812,-1.0095,0.1345
939699,0.2703,-1.0004,0.1007
939717,0.2336,-0.9604,-0.0105
939731,0.2209,-0.9440,-0.0486
939746,0.1962,-0.9084,-0.1235
939761,0.1740,-0.8724,-0.1949
939779,0.1560,-0.8381,-0.2622
939794,0.1431,-0.8069,-0.3257
939804,0.1384,-0.7922,-0.3564
939820,0.1321,-0.7642,-0.4170
939836,0.1281,-0.7361,-0.4790
939878,0.1165,-0.6544,-0.6592
939924,0.0891,-0.5374,-0.9368
939943,0.0780,-0.5015,-1.0328
939959,0.0669,-0.4714,-1.1216
939975,0.0562,-0.4496,-1.1971
939991,0.0458,-0.4371,-1.2544
940001,0.0408,-0.4344,-1.2751
940011,0.0314,-0.4362,-1.2996
940027,0.0271,-0.4401,-1.3032
940043,0.0193,-0.4528,-1.2938
940057,0.0128,-0.4702,-1.2639
940089,0.0056,-0.5116,-1.1559
940105,0.0049,-0.5326,-1.0858
940120,0.0060,-0.5522,-1.0110
940130,0.0070,-0.5614,-0.9730
940145,0.0100,-0.5785,-0.8988
940161,0.0139,-0.5935,-0.8297
940177,0.0186,-0.6069,-0.7687
940215,0.0302,-0.6301,-0.6791
940226,0.0370,-0.6403,-0.6521
940242,0.0442,-0.6497,-0.6365
940298,0.0679,-0.6741,-0.6506
940313,0.0704,-0.6761,-0.6583
940323,0.0750,-0.6788,-0.6755
940339,0.0782,-0.6797,-0.6936
940354,0.0795,-0.6794,-0.7025
940370,0.0811,-0.6776,-0.7191
940388,0.0809,-0.6727,-0.7397
940403,0.0802,-0.6705,-0.7454
940419,0.0780,-0.6656,-0.7546
940433,0.0750,-0.6602,-0.7620
940485,0.0659,-0.6425,-0.7765
940520,0.0645,-0.6333,-0.7850
940530,0.0651,-0.6328,-0.7864
940545,0.0670,-0.6332,-0.7887
940559,0.0682,-0.6339,-0.7894
940575,0.0713,-0.6367,-0.7898
940592,0.0745,-0.6406,-0.7882
940607,0.0776,-0.6451,-0.7844
940623,0.0803,-0.6494,-0.7783
940633,0.0823,-0.6533,-0.7703
940649,0.0829,-0.6549,-0.7609
940681,0.0833,-0.6580,-0.7469
940697,0.0824,-0.6575,-0.7396
940713,0.0812,-0.6558,-0.7352
940723,0.0800,-0.6531,-0.7343
940739,0.0793,-0.6515,-0.7372
940755,0.0785,-0.6477,-0.7401
940771,0.0781,-0.6436,-0.7487
940789,0.0780,-0.6371,-0.7689
940825,0.0776,-0.6283,-0.8115
940835,0.0773,-0.6260,-0.8253
940874,0.0714,-0.6124,-0.9122
940889,0.0668,-0.6053,-0.9520
940905,0.0610,-0.5974,-0.9917
940915,0.0579,-0.5930,-1.0106
940930,0.0515,-0.5837,-1.0452
940945,0.0457,-0.5745,-1.0730
940961,0.0411,-0.5660,-1.0917
940977,0.0397,-0.5598,-1.0996
940993,0.0388,-0.5571,-1.0955
941009,0.0411,-0.5574,-1.0890
941025,0.0466,-0.5616,-1.0671
941069,0.0807,-0.6023,-0.9330
941084,0.0956,-0.6224,-0.8645
941099,0.1034,-0.6332,-0.8257
941129,0.1339,-0.6791,-0.6410
941145,0.1475,-0.7030,-0.5337
941161,0.1592,-0.7272,-0.4204
941171,0.1646,-0.7393,-0.3629
941187,0.1744,-0.7632,-0.2495
941203,0.1838,-0.7870,-0.1426
941219,0.1935,-0.8109,-0.0476
941237,0.2042,-0.8352,0.0314
941248,0.2163,-0.8606,0.0914
941262,0.2229,-0.8738,0.1139
941277,0.2369,-0.9009,0.1437
941292,0.2513,-0.9287,0.1545
941341,0.2878,-0.9995,0.0994
941356,0.2952,-1.0122,0.0629
941366,0.2975,-1.0156,0.0432
941382,0.2994,-1.0165,0.0031
941397,0.2979,-1.0095,-0.0363
941443,0.2505,-0.9458,-0.1438
941489,0.2539,-0.8529,-0.2438
941505,0.2443,-0.8087,-0.2961
941515,0.2394,-0.7858,-0.3264
941531,0.2296,-0.7394,-0.3962
941547,0.2200,-0.6943,-0.4797
941563,0.2108,-0.6532,-0.5769
941581,0.2029,-0.6183,-0.6859
941594,0.1963,-0.5912,-0.8027
941609,0.1909,-0.5721,-0.9213
941622,0.1885,-0.5657,-0.9789
941637,0.1833,-0.5579,-1.0856
941647,0.1804,-0.5562,-1.1327
941657,0.1731,-0.5566,-1.2102
941673,0.1633,-0.5604,-1.2607
941687,0.1575,-0.5630,-1.2750
941702,0.1438,-0.5686,-1.2812
941734,0.1123,-0.5790,-1.2124
941762,0.0906,-0.5853,-1.1101
941779,0.0795,-0.5917,-0.9891
941794,0.0720,-0.5941,-0.9487
941810,0.0682,-0.5992,-0.8718
941825,0.0677,-0.6050,-0.8042
941843,0.0698,-0.6110,-0.7487
941861,0.0760,-0.6201,-0.6914
941876,0.0786,-0.6230,-0.6792
941895,0.0870,-0.6317,-0.6606
941931,0.0985,-0.6421,-0.6682
941947,0.1039,-0.6465,-0.6804
941963,0.1086,-0.6503,-0.6951
941973,0.1108,-0.6519,-0.7028
941989,0.1147,-0.6544,-0.7179
942005,0.1180,-0.6564,-0.7319
942021,0.1211,-0.6580,-0.7443
942039,0.1239,-0.6593,-0.7548
942067,0.1296,-0.6624,-0.7704
942081,0.1311,-0.6633,-0.7755
942096,0.1335,-0.6652,-0.7772
942130,0.1365,-0.6685,-0.7789
942146,0.1367,-0.6692,-0.7764
942161,0.1361,-0.6689,-0.7717
942171,0.1354,-0.6685,-0.7688
942186,0.1334,-0.6669,-0.7617
942202,0.1306,-0.6646,-0.7533
942218,0.1271,-0.6617,-0.7444
942235,0.1230,-0.6587,-0.7354
942251,0.1188,-0.6558,-0.7274
942267,0.1149,-0.6528,-0.7214
942286,0.1107,-0.6490,-0.7181
942342,0.1117,-0.6473,-0.7334
942370,0.1171,-0.6514,-0.7516
942380,0.1185,-0.6527,-0.7559
942396,0.1213,-0.6554,-0.7633
942412,0.1237,-0.6577,-0.7687
942428,0.1252,-0.6593,-0.7715
942446,0.1260,-0.6600,-0.7719
942462,0.1255,-0.6599,-0.7697
942478,0.1240,-0.6588,-0.7659
942488,0.1229,-0.6581,-0.7635
942503,0.1205,-0.6559,-0.7589
942546,0.1141,-0.6495,-0.7524
942562,0.1127,-0.6476,-0.7535
942580,0.1122,-0.6465,-0.7568
942595,0.1128,-0.6466,-0.7621
942608,0.1141,-0.6478,-0.7689
942624,0.1160,-0.6501,-0.7770
942641,0.1176,-0.6528,-0.7864
942676,0.1184,-0.6566,-0.8114
942694,0.1165,-0.6566,-0.8286
942726,0.1069,-0.6514,-0.8765
942742,0.0990,-0.6461,-0.9077
942758,0.0894,-0.6392,-0.9432
942768,0.0840,-0.6351,-0.9622
942784,0.0724,-0.6260,-1.0011
942800,0.0604,-0.6161,-1.0389
942816,0.0493,-0.6062,-1.0726
942834,0.0397,-0.5974,-1.1074
942850,0.0323,-0.5907,-1.1132
942866,0.0281,-0.5865,-1.1136
942882,0.0276,-0.5853,-1.0970
942924,0.0464,-0.5970,-0.9667
942939,0.0620,-0.6096,-0.8763
942954,0.0818,-0.6277,-0.7654
942984,0.1302,-0.6805,-0.4974
942999,0.1573,-0.7124,-0.3529
943015,0.1853,-0.7448,-0.2112
943025,0.1995,-0.7604,-0.1436
943040,0.2273,-0.7898,-0.0187
943056,0.2537,-0.8163,0.0886
943071,0.2660,-0.8287,0.1348
943089,0.2983,-0.8638,0.2416
943107,0.3148,-0.8867,0.2863
943122,0.3271,-0.9095,0.3108
943138,0.3353,-0.9315,0.3167
943180,0.3401,-0.9729,0.2625
943196,0.3364,-0.9803,0.2192
943212,0.3298,-0.9811,0.1671
943222,0.3254,-0.9788,0.1382
943238,0.3146,-0.9685,0.0758
943254,0.3008,-0.9509,0.0079
943302,0.2457,-0.8596,-0.2249
943353,0.1802,-0.7367,-0.4951
943368,0.1595,-0.6978,-0.5913
943378,0.1503,-0.6798,-0.6399
943393,0.1340,-0.6483,-0.7371
943407,0.1274,-0.6350,-0.7852
943422,0.1178,-0.6139,-0.8794
943440,0.1121,-0.5959,-1.0123
943455,0.1121,-0.5933,-1.0533
943470,0.1145,-0.5918,-1.1277
943486,0.1184,-0.5946,-1.1895
943504,0.1221,-0.6003,-1.2346
943515,0.1243,-0.6074,-1.2603
943531,0.1238,-0.6146,-1.2645
943547,0.1206,-0.6206,-1.2468
943598,0.1022,-0.6288,-1.0836
943643,0.0906,-0.6331,-0.8820
943653,0.0896,-0.6371,-0.8035
943668,0.0892,-0.6398,-0.7671
943683,0.0903,-0.6466,-0.7020
943698,0.0927,-0.6549,-0.6495
943739,0.1005,-0.6788,-0.5776
943755,0.1034,-0.6881,-0.5707
943770,0.1062,-0.6964,-0.5736
943780,0.1074,-0.7000,-0.5781
943795,0.1097,-0.7062,-0.5918
943811,0.1118,-0.7108,-0.6099
943827,0.1135,-0.7137,-0.6302
943845,0.1150,-0.7155,-0.6514
943861,0.1165,-0.7159,-0.6715
943877,0.1178,-0.7155,-0.6899
943893,0.1190,-0.7145,-0.7054
943912,0.1199,-0.7131,-0.7175
943974,0.1169,-0.7045,-0.7289
943984,0.1156,-0.7031,-0.7266
944000,0.1125,-0.7003,-0.7202
944016,0.1089,-0.6974,-0.7122
944032,0.1049,-0.6945,-0.7035
944049,0.1006,-0.6917,-0.6948
944064,0.0964,-0.6890,-0.6873
944079,0.0928,-0.6866,-0.6815
944093,0.0912,-0.6855,-0.6796
944110,0.0889,-0.6837,-0.6777
944126,0.0880,-0.6825,-0.6787
944137,0.0889,-0.6821,-0.6825
944150,0.0900,-0.6824,-0.6852
944165,0.0931,-0.6838,-0.6917
944196,0.1028,-0.6896,-0.7057
944212,0.1084,-0.6934,-0.7115
944248,0.1191,-0.7008,-0.7185
944261,0.1235,-0.7041,-0.7191
944277,0.1270,-0.7069,-0.7175
944293,0.1295,-0.7091,-0.7140
944309,0.1311,-0.7106,-0.7091
944319,0.1316,-0.7109,-0.7063
944338,0.1322,-0.7109,-0.7008
944354,0.1326,-0.7101,-0.6963
944370,0.1332,-0.7086,-0.6942
944418,0.1351,-0.7025,-0.7198
944434,0.1343,-0.6997,-0.7446
944444,0.1332,-0.6981,-0.7607
944459,0.1298,-0.6942,-0.8003
944474,0.1246,-0.6895,-0.8490
944489,0.1178,-0.6837,-0.9049
944506,0.1095,-0.6766,-0.9646
944521,0.0999,-0.6678,-1.0236
944549,0.0836,-0.6509,-1.0992
944559,0.0779,-0.6443,-1.1185
944603,0.0492,-0.6028,-1.1342
944619,0.0452,-0.5934,-1.0953
944634,0.0447,-0.5907,-1.0676
944644,0.0470,-0.5905,-0.9972
944658,0.0498,-0.5933,-0.9551
944673,0.0588,-0.6051,-0.8600
944689,0.0717,-0.6250,-0.7542
944707,0.0880,-0.6521,-0.6427
944723,0.1068,-0.6846,-0.5304
944739,0.1276,-0.7205,-0.4215
944755,0.1492,-0.7579,-0.3191
944766,0.1705,-0.7952,-0.2253
944809,0.2170,-0.8785,-0.0339
944825,0.2311,-0.9048,0.0256
944853,0.2465,-0.9344,0.0979
944863,0.2501,-0.9417,0.1177
944878,0.2554,-0.9528,0.1510
944893,0.2582,-0.9597,0.1760
944908,0.2590,-0.9631,0.1924
944925,0.2583,-0.9635,0.2001
944941,0.2561,-0.9612,0.1984
944956,0.2522,-0.9561,0.1871
944966,0.2498,-0.9524,0.1779
944982,0.2435,-0.9426,0.1517
945014,0.2269,-0.9137,0.0704
945030,0.2168,-0.8939,0.0159
945046,0.2054,-0.8701,-0.0480
945056,0.1993,-0.8566,-0.0835
945072,0.1862,-0.8263,-0.1616
945088,0.1724,-0.7924,-0.2496
945104,0.1582,-0.7562,-0.3479
945122,0.1447,-0.7198,-0.4559
945136,0.1324,-0.6855,-0.5721
945172,0.1155,-0.6310,-0.8143
945182,0.1129,-0.6215,-0.8730
945214,0.1089,-0.6029,-1.0760
945229,0.1090,-0.6049,-1.1487
945245,0.1094,-0.6124,-1.1971
945255,0.1094,-0.6177,-1.2119
945270,0.1086,-0.6296,-1.2224
945285,0.1068,-0.6417,-1.2095
945301,0.1036,-0.6525,-1.1761
945319,0.0992,-0.6608,-1.1265
945335,0.0941,-0.6663,-1.0652
945351,0.0887,-0.6689,-0.9972
945367,0.0841,-0.6692,-0.9274
945429,0.0828,-0.6649,-0.7024
945467,0.0934,-0.6713,-0.6466
945483,0.1005,-0.6770,-0.6331
945499,0.1080,-0.6840,-0.6274
945509,0.1119,-0.6877,-0.6272
945525,0.1198,-0.6953,-0.6305
945541,0.1272,-0.7026,-0.6378
945556,0.1339,-0.7092,-0.6475
945573,0.1393,-0.7145,-0.6581
945595,0.1444,-0.7194,-0.6743
945610,0.1460,-0.7205,-0.6847
945623,0.1464,-0.7205,-0.6896
945675,0.1431,-0.7147,-0.7179
945688,0.1422,-0.7136,-0.7209
945699,0.1404,-0.7115,-0.7256
945714,0.1393,-0.7107,-0.7273
945730,0.1370,-0.7089,-0.7291
945766,0.1296,-0.7054,-0.7245
945776,0.1281,-0.7048,-0.7220
945794,0.1249,-0.7040,-0.7162
945810,0.1217,-0.7032,-0.7092
945826,0.1187,-0.7028,-0.7015
945866,0.1117,-0.7030,-0.6832
945882,0.1099,-0.7036,-0.6780
945898,0.1089,-0.7043,-0.6746
945908,0.1089,-0.7048,-0.6736
945927,0.1095,-0.7062,-0.6732
945936,0.1111,-0.7078,-0.6746
945952,0.1121,-0.7089,-0.6758
945975,0.1158,-0.7125,-0.6804
945990,0.1184,-0.7153,-0.6837
946000,0.1195,-0.7167,-0.6852
946015,0.1215,-0.7190,-0.6875
946054,0.1224,-0.7216,-0.6879
946082,0.1195,-0.7205,-0.6841
946100,0.1141,-0.7177,-0.6783
946115,0.1119,-0.7164,-0.6764
946131,0.1073,-0.7136,-0.6729
946145,0.1028,-0.7106,-0.6703
946163,0.0989,-0.7075,-0.6692
946179,0.0959,-0.7050,-0.6698
946195,0.0941,-0.7029,-0.6718
946205,0.0936,-0.7020,-0.6732
946220,0.0934,-0.7009,-0.6766
946252,0.0951,-0.7002,-0.6837
946268,0.0967,-0.7002,-0.6871
946284,0.0986,-0.7004,-0.6910
946294,0.0997,-0.7006,-0.6935
946310,0.1021,-0.7009,-0.7003
946326,0.1045,-0.7015,-0.7108
946342,0.1069,-0.7021,-0.7263
946360,0.1093,-0.7028,-0.7478
946388,0.1129,-0.7029,-0.8064
946406,0.1143,-0.7025,-0.8408
946464,0.1149,-0.6997,-0.9519
946480,0.1127,-0.6981,-0.9729
946490,0.1111,-0.6970,-0.9807
946505,0.1068,-0.6945,-0.9904
946521,0.1013,-0.6917,-0.9915
946537,0.0951,-0.6895,-0.9836
946555,0.0889,-0.6886,-0.9664
946571,0.0834,-0.6901,-0.9396
946587,0.0791,-0.6945,-0.9033
946603,0.0769,-0.7020,-0.8578
946614,0.0768,-0.7068,-0.8317
946658,0.0914,-0.7435,-0.6337
946673,0.1028,-0.7565,-0.5555
946701,0.1246,-0.7761,-0.4323
946711,0.1327,-0.7830,-0.3904
946726,0.1493,-0.7976,-0.3066
946741,0.1656,-0.8136,-0.2247
946756,0.1809,-0.8311,-0.1466
946774,0.1940,-0.8494,-0.0741
946790,0.2042,-0.8678,-0.0088
946805,0.2113,-0.8854,0.0482
946815,0.2135,-0.8936,0.0732
946831,0.2159,-0.9083,0.1156
946863,0.2151,-0.9308,0.1675
946879,0.2136,-0.9379,0.1763
946895,0.2124,-0.9417,0.1735
946905,0.2122,-0.9423,0.1677
946921,0.2124,-0.9406,0.1475
946937,0.2135,-0.9353,0.1157
946953,0.2152,-0.9269,0.0731
946971,0.2167,-0.9156,0.0201
947021,0.2101,-0.8696,-0.1893
947031,0.2064,-0.8605,-0.2300
947063,0.1846,-0.8198,-0.4048
947079,0.1705,-0.7966,-0.4978
947094,0.1549,-0.7714,-0.5930
947104,0.1465,-0.7581,-0.6406
947119,0.1288,-0.7300,-0.7347
947134,0.1097,-0.7004,-0.8242
947149,0.0897,-0.6700,-0.9059
947166,0.0692,-0.6403,-0.9762
947181,0.0490,-0.6122,-1.0326
947194,0.0392,-0.5994,-1.0549
947209,0.0208,-0.5765,-1.0875
947224,0.0044,-0.5586,-1.1042
947258,-0.0197,-0.5387,-1.0962
947274,-0.0270,-0.5366,-1.0764
947303,-0.0334,-0.5452,-1.0183
947313,-0.0337,-0.5492,-1.0016
947329,-0.0330,-0.5587,-0.9670
947345,-0.0305,-0.5693,-0.9327
947361,-0.0265,-0.5803,-0.8998
947379,-0.0208,-0.5912,-0.8694
947395,-0.0135,-0.6017,-0.8419
947411,-0.0051,-0.6119,-0.8180
947427,0.0044,-0.6221,-0.7974
947438,0.0093,-0.6271,-0.7885
947487,0.0382,-0.6554,-0.7512
947503,0.0460,-0.6633,-0.7441
947516,0.0525,-0.6700,-0.7388
947531,0.0551,-0.6730,-0.7367
947546,0.0587,-0.6782,-0.7329
947560,0.0608,-0.6827,-0.7296
947578,0.0613,-0.6865,-0.7264
947620,0.0583,-0.6932,-0.7179
947642,0.0552,-0.6951,-0.7120
947686,0.0496,-0.6947,-0.7017
947700,0.0472,-0.6935,-0.6982
947717,0.0453,-0.6918,-0.6960
947733,0.0439,-0.6899,-0.6957
947749,0.0432,-0.6881,-0.6971
947765,0.0432,-0.6866,-0.7003
947783,0.0437,-0.6860,-0.7050
947799,0.0447,-0.6863,-0.7103
947815,0.0455,-0.6871,-0.7159
947831,0.0465,-0.6885,-0.7214
947841,0.0469,-0.6892,-0.7240
947873,0.0479,-0.6913,-0.7310
947888,0.0477,-0.6914,-0.7322
947916,0.0465,-0.6904,-0.7306
947926,0.0448,-0.6890,-0.7279
947945,0.0426,-0.6870,-0.7244
947960,0.0402,-0.6851,-0.7208
947976,0.0377,-0.6830,-0.7179
947999,0.0350,-0.6805,-0.7156
948015,0.0343,-0.6794,-0.7158
948030,0.0343,-0.6791,-0.7164
948048,0.0355,-0.6796,-0.7198
948080,0.0389,-0.6832,-0.7266
948096,0.0398,-0.6859,-0.7301
948112,0.0414,-0.6873,-0.7319
948122,0.0426,-0.6898,-0.7356
948138,0.0431,-0.6917,-0.7391
948154,0.0428,-0.6925,-0.7423
948169,0.0424,-0.6926,-0.7438
948187,0.0399,-0.6919,-0.7465
948233,0.0330,-0.6881,-0.7429
948274,0.0273,-0.6836,-0.7264
948289,0.0270,-0.6830,-0.7166
948305,0.0283,-0.6837,-0.7056
948315,0.0295,-0.6847,-0.6997
948330,0.0331,-0.6884,-0.6881
948346,0.0381,-0.6940,-0.6769
948362,0.0442,-0.7015,-0.6670
948380,0.0510,-0.7106,-0.6587
948396,0.0583,-0.7203,-0.6525
948412,0.0658,-0.7302,-0.6487
948428,0.0730,-0.7396,-0.6479
948446,0.0793,-0.7480,-0.6509
948457,0.0842,-0.7548,-0.6587
948472,0.0858,-0.7576,-0.6650
948488,0.0872,-0.7614,-0.6836
948524,0.0770,-0.7600,-0.7755
948575,0.0476,-0.7397,-0.9580
948591,0.0374,-0.7300,-1.0193
948601,0.0326,-0.7247,-1.0465
948617,0.0244,-0.7140,-1.0896
948633,0.0189,-0.7036,-1.1129
948648,0.0168,-0.6947,-1.1122
948658,0.0172,-0.6912,-1.1018
948701,0.0343,-0.6855,-0.9496
948717,0.0471,-0.6899,-0.8462
948735,0.0702,-0.7036,-0.6593
948749,0.0786,-0.7100,-0.5917
948764,0.0959,-0.7250,-0.4542
948780,0.1132,-0.7427,-0.3195
948798,0.1296,-0.7626,-0.1941
948826,0.1577,-0.8054,0.0101
948842,0.1691,-0.8271,0.0844
948884,0.1918,-0.8795,0.1897
948900,0.2000,-0.8995,0.2047
948916,0.2084,-0.9186,0.2078
948926,0.2130,-0.9275,0.2053
948942,0.2230,-0.9436,0.1940
948958,0.2345,-0.9563,0.1748
948974,0.2467,-0.9644,0.1490
948992,0.2592,-0.9667,0.1174
949007,0.2704,-0.9626,0.0800
949022,0.2791,-0.9517,0.0365
949036,0.2819,-0.9436,0.0122
949054,0.2832,-0.9092,-0.0712
949065,0.2811,-0.8950,-0.1028
949073,0.2778,-0.8798,-0.1366
949088,0.2677,-0.8472,-0.2112
949101,0.2612,-0.8302,-0.2522
949129,0.2274,-0.7605,-0.4442
949160,0.1857,-0.6910,-0.6731
949176,0.1746,-0.6744,-0.7325
949192,0.1519,-0.6429,-0.8492
949202,0.1292,-0.6146,-0.9584
949217,0.1179,-0.5706,-1.0552
949233,0.0959,-0.5792,-1.0975
949249,0.0748,-0.5603,-1.1681
949291,0.0265,-0.5291,-1.2190
949306,0.0103,-0.5229,-1.2446
949322,-0.0034,-0.5205,-1.2196
949332,-0.0140,-0.5214,-1.1785
949348,-0.0181,-0.5229,-1.1255
949364,-0.0237,-0.5281,-1.0958
949380,-0.0258,-0.5359,-1.0334
949398,-0.0223,-0.5518,-0.9393
949432,-0.0071,-0.5790,-0.8291
949448,0.0040,-0.5942,-0.7849
949466,0.0166,-0.6100,-0.7493
949477,0.0233,-0.6178,-0.7347
949493,0.0366,-0.6332,-0.7122
949509,0.0497,-0.6478,-0.6976
949568,0.0881,-0.6882,-0.6971
949584,0.0964,-0.6960,-0.7067
949594,0.1031,-0.7023,-0.7179
949610,0.1057,-0.7047,-0.7292
949626,0.1093,-0.7086,-0.7345
949642,0.1102,-0.7111,-0.7433
949660,0.1068,-0.7126,-0.7500
949682,0.1014,-0.7123,-0.7489
949698,0.0944,-0.7112,-0.7429
949714,0.0861,-0.7092,-0.7321
949795,0.0516,-0.6965,-0.6437
949805,0.0503,-0.6954,-0.6364
949821,0.0493,-0.6934,-0.6250
