timestamp,acc_x,acc_y,acc_z
870004,0.0157,-0.9613,-0.0017
871923,0.0164,-0.9677,-0.0016
872095,0.0162,-0.9674,-0.0016
872115,0.0162,-0.9674,-0.0017
872139,0.0162,-0.9674,-0.0017
872162,0.0162,-0.9674,-0.0017
872188,0.0162,-0.9674,-0.0017
872211,0.0161,-0.9674,-0.0018
872447,0.0162,-0.9673,-0.0018
872473,0.0164,-0.9673,-0.0018
872496,0.0164,-0.9674,-0.0018
872520,0.0164,-0.9674,-0.0018
872572,0.0164,-0.9674,-0.0017
872589,0.0164,-0.9674,-0.0017
872612,0.0164,-0.9675,-0.0017
872634,0.0164,-0.9675,-0.0017
872651,0.0164,-0.9675,-0.0017
872668,0.0164,-0.9675,-0.0017
872691,0.0164,-0.9675,-0.0017
872723,0.0164,-0.9677,-0.0017
872746,0.0164,-0.9677,-0.0018
872770,0.0164,-0.9677,-0.0018
872793,0.0164,-0.9677,-0.0018
872815,0.0164,-0.9677,-0.0018
873171,0.0164,-0.9674,-0.0021
873255,0.0164,-0.9674,-0.0018
873272,0.0164,-0.9674,-0.0017
873295,0.0164,-0.9675,-0.0018
873317,0.0164,-0.9675,-0.0020
873334,0.0164,-0.9675,-0.0021
873356,0.0164,-0.9675,-0.0022
873381,0.0165,-0.9677,-0.0024
873407,0.0165,-0.9677,-0.0027
873430,0.0165,-0.9678,-0.0027
873453,0.0165,-0.9678,-0.0027
873475,0.0165,-0.9678,-0.0026
873760,0.0167,-0.9677,-0.0015
873788,0.0167,-0.9677,-0.0015
873804,0.0167,-0.9677,-0.0015
873826,0.0168,-0.9675,-0.0013
873849,0.0168,-0.9675,-0.0013
873869,0.0168,-0.9675,-0.0013
873892,0.0168,-0.9675,-0.0013
873909,0.0170,-0.9675,-0.0013
873931,0.0170,-0.9674,-0.0013
873953,0.0170,-0.9674,-0.0013
873970,0.0170,-0.9674,-0.0015
873993,0.0170,-0.9674,-0.0015
874015,0.0170,-0.9674,-0.0015
874041,0.0170,-0.9674,-0.0016
874064,0.0170,-0.9674,-0.0016
874088,0.0168,-0.9674,-0.0017
874475,0.0172,-0.9672,-0.0016
874538,0.0173,-0.9673,-0.0016
874555,0.0175,-0.9673,-0.0016
874578,0.0176,-0.9674,-0.0016
874600,0.0177,-0.9674,-0.0016
874617,0.0178,-0.9674,-0.0016
874639,0.0179,-0.9674,-0.0016
874662,0.0181,-0.9674,-0.0016
874679,0.0181,-0.9674,-0.0017
874696,0.0182,-0.9674,-0.0017
874718,0.0182,-0.9674,-0.0018
874751,0.0183,-0.9674,-0.0020
874773,0.0184,-0.9675,-0.0021
875118,0.0189,-0.9678,-0.0024
875190,0.0190,-0.9678,-0.0024
875207,0.0190,-0.9678,-0.0023
875230,0.0190,-0.9677,-0.0023
875252,0.0190,-0.9677,-0.0023
875269,0.0190,-0.9677,-0.0023
875291,0.0192,-0.9675,-0.0023
875314,0.0192,-0.9675,-0.0023
875333,0.0192,-0.9675,-0.0023
875355,0.0192,-0.9675,-0.0023
875378,0.0192,-0.9675,-0.0024
875404,0.0192,-0.9675,-0.0024
875702,0.0192,-0.9677,-0.0027
875762,0.0192,-0.9677,-0.0027
875839,0.0190,-0.9675,-0.0027
875855,0.0190,-0.9675,-0.0028
875874,0.0190,-0.9675,-0.0028
875897,0.0189,-0.9675,-0.0028
875931,0.0189,-0.9675,-0.0028
875953,0.0189,-0.9675,-0.0028
875977,0.0189,-0.9675,-0.0028
875998,0.0189,-0.9675,-0.0027
876020,0.0189,-0.9675,-0.0027
876045,0.0189,-0.9675,-0.0027
876067,0.0189,-0.9675,-0.0027
876333,0.0189,-0.9677,-0.0022
876361,0.0187,-0.9677,-0.0024
876434,0.0183,-0.9677,-0.0032
876451,0.0183,-0.9677,-0.0033
876473,0.0182,-0.9677,-0.0034
876491,0.0182,-0.9677,-0.0035
876511,0.0181,-0.9677,-0.0037
876533,0.0181,-0.9677,-0.0037
876550,0.0179,-0.9675,-0.0035
876590,0.0179,-0.9675,-0.0035
876613,0.0179,-0.9675,-0.0033
876637,0.0181,-0.9675,-0.0033
876659,0.0181,-0.9675,-0.0032
876935,0.0186,-0.9675,-0.0018
876995,0.0184,-0.9675,-0.0020
877081,0.0184,-0.9677,-0.0020
877098,0.0184,-0.9677,-0.0021
877120,0.0184,-0.9677,-0.0021
877145,0.0184,-0.9677,-0.0021
877170,0.0184,-0.9677,-0.0021
877192,0.0184,-0.9677,-0.0021
877217,0.0184,-0.9677,-0.0022
877239,0.0184,-0.9677,-0.0022
877262,0.0184,-0.9677,-0.0022
877279,0.0184,-0.9677,-0.0022
877301,0.0184,-0.9677,-0.0023
877514,0.0186,-0.9678,-0.0026
877542,0.0186,-0.9678,-0.0026
877565,0.0186,-0.9678,-0.0026
877589,0.0186,-0.9678,-0.0026
877711,0.0186,-0.9677,-0.0023
877730,0.0186,-0.9677,-0.0022
877752,0.0184,-0.9677,-0.0022
877774,0.0184,-0.9677,-0.0022
877800,0.0184,-0.9675,-0.0021
877819,0.0184,-0.9675,-0.0021
877839,0.0184,-0.9675,-0.0021
877862,0.0184,-0.9675,-0.0021
877883,0.0184,-0.9675,-0.0021
877905,0.0186,-0.9675,-0.0021
878168,0.0187,-0.9675,-0.0018
878226,0.0186,-0.9675,-0.0020
878333,0.0183,-0.9674,-0.0021
878350,0.0183,-0.9674,-0.0021
878372,0.0183,-0.9674,-0.0021
878389,0.0182,-0.9674,-0.0021
878422,0.0182,-0.9675,-0.0022
878445,0.0182,-0.9675,-0.0022
878469,0.0183,-0.9675,-0.0023
878502,0.0183,-0.9675,-0.0023
878524,0.0183,-0.9677,-0.0023
878765,0.0186,-0.9677,-0.0021
878793,0.0186,-0.9677,-0.0021
878814,0.0186,-0.9677,-0.0021
878836,0.0186,-0.9677,-0.0021
878918,0.0187,-0.9678,-0.0021
878935,0.0187,-0.9678,-0.0021
878957,0.0187,-0.9678,-0.0022
878982,0.0187,-0.9678,-0.0022
879008,0.0187,-0.9678,-0.0022
879031,0.0187,-0.9678,-0.0022
879054,0.0187,-0.9678,-0.0022
879076,0.0187,-0.9678,-0.0022
879099,0.0186,-0.9678,-0.0022
879116,0.0186,-0.9678,-0.0022
879138,0.0186,-0.9678,-0.0022
879408,0.0186,-0.9677,-0.0026
879468,0.0187,-0.9675,-0.0026
879602,0.0186,-0.9674,-0.0024
879621,0.0184,-0.9674,-0.0024
879643,0.0184,-0.9674,-0.0023
879666,0.0184,-0.9675,-0.0023
879692,0.0184,-0.9675,-0.0023
879715,0.0184,-0.9675,-0.0022
879739,0.0184,-0.9675,-0.0022
879762,0.0184,-0.9675,-0.0022
879919,0.0186,-0.9678,-0.0024
879947,0.0186,-0.9678,-0.0026
879969,0.0187,-0.9678,-0.0026
879993,0.0187,-0.9678,-0.0026
880016,0.0188,-0.9677,-0.0026
880038,0.0188,-0.9677,-0.0026
880055,0.0189,-0.9677,-0.0024
880074,0.0189,-0.9675,-0.0024
880328,0.0186,-0.9674,-0.0032
880368,0.0184,-0.9673,-0.0028
880391,0.0184,-0.9673,-0.0027
880408,0.0184,-0.9673,-0.0024
880431,0.0186,-0.9674,-0.0021
880453,0.0186,-0.9675,-0.0020
880473,0.0186,-0.9675,-0.0020
880496,0.0187,-0.9678,-0.0023
880514,0.0187,-0.9678,-0.0024
880533,0.0187,-0.9679,-0.0027
880551,0.0187,-0.9679,-0.0029
880572,0.0187,-0.9679,-0.0032
880639,0.0184,-0.9679,-0.0035
880656,0.0184,-0.9678,-0.0037
880679,0.0183,-0.9678,-0.0037
881068,0.0175,-0.9678,-0.0017
881097,0.0175,-0.9679,-0.0017
881117,0.0175,-0.9679,-0.0017
881141,0.0175,-0.9679,-0.0017
881164,0.0175,-0.9679,-0.0018
881186,0.0175,-0.9679,-0.0018
881203,0.0176,-0.9679,-0.0018
881225,0.0176,-0.9679,-0.0020
881248,0.0177,-0.9678,-0.0020
881265,0.0177,-0.9678,-0.0021
881282,0.0177,-0.9678,-0.0021
881304,0.0177,-0.9677,-0.0022
881344,0.0178,-0.9677,-0.0022
881367,0.0178,-0.9675,-0.0023
881714,0.0171,-0.9678,-0.0017
881798,0.0172,-0.9679,0.0002
881820,0.0172,-0.9679,0.0007
881841,0.0172,-0.9679,0.0013
881861,0.0172,-0.9679,0.0020
881878,0.0172,-0.9679,0.0026
881901,0.0171,-0.9679,0.0042
881925,0.0171,-0.9679,0.0050
881951,0.0171,-0.9679,0.0073
881973,0.0171,-0.9679,0.0089
881998,0.0171,-0.9679,0.0133
882020,0.0171,-0.9679,0.0164
882310,0.0107,-0.9674,0.2382
882338,0.0093,-0.9656,0.2919
882359,0.0087,-0.9641,0.3206
882384,0.0081,-0.9602,0.3802
882406,0.0079,-0.9574,0.4105
882428,0.0079,-0.9540,0.4404
882445,0.0079,-0.9501,0.4694
882468,0.0082,-0.9402,0.5201
882490,0.0083,-0.9348,0.5399
882507,0.0085,-0.9298,0.5544
882525,0.0088,-0.9254,0.5629
882542,0.0090,-0.9219,0.5645
882565,0.0093,-0.9177,0.5457
882592,0.0092,-0.9171,0.5253
882615,0.0087,-0.9191,0.4642
882638,0.0082,-0.9215,0.4248
883031,0.0056,-0.9810,-0.2577
883092,0.0076,-0.9738,-0.2264
883109,0.0083,-0.9713,-0.2151
883132,0.0100,-0.9664,-0.1929
883151,0.0109,-0.9642,-0.1824
883168,0.0117,-0.9623,-0.1726
883190,0.0125,-0.9606,-0.1637
883212,0.0132,-0.9591,-0.1556
883229,0.0138,-0.9580,-0.1486
883246,0.0143,-0.9573,-0.1425
883269,0.0151,-0.9568,-0.1333
883309,0.0157,-0.9575,-0.1283
883332,0.0161,-0.9590,-0.1268
883646,0.0182,-0.9686,-0.1528
883687,0.0181,-0.9691,-0.1484
883709,0.0179,-0.9694,-0.1464
883726,0.0179,-0.9695,-0.1440
883749,0.0177,-0.9698,-0.1383
883771,0.0177,-0.9700,-0.1346
883788,0.0176,-0.9701,-0.1302
883812,0.0176,-0.9702,-0.1251
883832,0.0175,-0.9703,-0.1116
883857,0.0173,-0.9703,-0.1030
883877,0.0173,-0.9702,-0.0931
883917,0.0170,-0.9697,-0.0532
883939,0.0167,-0.9694,-0.0359
884272,0.0155,-0.9219,0.6813
884333,0.0170,-0.9192,0.6442
884350,0.0172,-0.9207,0.6113
884372,0.0173,-0.9230,0.5703
884394,0.0173,-0.9258,0.5221
884411,0.0172,-0.9291,0.4680
884434,0.0167,-0.9368,0.3473
884476,0.0157,-0.9453,0.2185
884501,0.0145,-0.9539,0.0918
884523,0.0139,-0.9581,0.0320
884541,0.0132,-0.9622,-0.0243
884561,0.0126,-0.9659,-0.0763
884971,0.0092,-0.9612,-0.1478
885000,0.0093,-0.9608,-0.1368
885022,0.0093,-0.9611,-0.1333
885046,0.0094,-0.9615,-0.1309
885069,0.0098,-0.9628,-0.1294
885091,0.0101,-0.9636,-0.1299
885108,0.0104,-0.9645,-0.1312
885130,0.0107,-0.9652,-0.1331
885153,0.0115,-0.9667,-0.1381
885170,0.0117,-0.9673,-0.1410
885191,0.0120,-0.9679,-0.1442
885212,0.0122,-0.9683,-0.1472
885252,0.0127,-0.9691,-0.1558
885273,0.0129,-0.9692,-0.1581
885558,0.0134,-0.9685,-0.0967
885631,0.0114,-0.9656,0.0148
885753,-0.0005,-0.9564,0.2883
885770,-0.0020,-0.9546,0.3402
885792,-0.0033,-0.9524,0.3943
885814,-0.0044,-0.9498,0.4500
885839,-0.0060,-0.9426,0.5610
885858,-0.0062,-0.9385,0.6133
885879,-0.0061,-0.9344,0.6604
885902,-0.0048,-0.9280,0.7324
885924,-0.0037,-0.9258,0.7543
886194,0.0134,-0.9546,-0.0146
886244,0.0123,-0.9625,-0.1814
886260,0.0118,-0.9646,-0.2251
886277,0.0111,-0.9664,-0.2623
886300,0.0098,-0.9694,-0.3175
886322,0.0090,-0.9706,-0.3356
886339,0.0083,-0.9714,-0.3478
886361,0.0077,-0.9722,-0.3545
886384,0.0065,-0.9729,-0.3535
886403,0.0060,-0.9729,-0.3469
886425,0.0055,-0.9727,-0.3372
886447,0.0051,-0.9723,-0.3248
886475,0.0045,-0.9712,-0.2947
886497,0.0044,-0.9706,-0.2780
886522,0.0044,-0.9692,-0.2440
886555,0.0048,-0.9680,-0.2119
886941,0.0105,-0.9689,-0.1691
887007,0.0101,-0.9689,-0.1735
887022,0.0100,-0.9686,-0.1736
887044,0.0100,-0.9685,-0.1735
887067,0.0100,-0.9680,-0.1722
887084,0.0100,-0.9679,-0.1713
887106,0.0100,-0.9678,-0.1700
887128,0.0100,-0.9677,-0.1686
887145,0.0100,-0.9677,-0.1669
887162,0.0099,-0.9677,-0.1652
887185,0.0096,-0.9677,-0.1614
887226,0.0092,-0.9678,-0.1573
887245,0.0089,-0.9678,-0.1553
887574,0.0076,-0.9702,-0.0703
887631,0.0074,-0.9689,-0.0052
887648,0.0071,-0.9680,0.0232
887671,0.0062,-0.9656,0.0914
887693,0.0057,-0.9637,0.1311
887710,0.0055,-0.9615,0.1744
887729,0.0052,-0.9590,0.2211
887752,0.0055,-0.9526,0.3226
887776,0.0060,-0.9489,0.3763
887793,0.0065,-0.9446,0.4309
887815,0.0072,-0.9396,0.4851
887856,0.0099,-0.9209,0.6318
887877,0.0109,-0.9146,0.6700
888174,0.0159,-0.9630,-0.0051
888236,0.0129,-0.9797,-0.2028
888332,0.0092,-0.9866,-0.3176
888355,0.0079,-0.9850,-0.3256
888377,0.0073,-0.9834,-0.3232
888394,0.0068,-0.9812,-0.3173
888422,0.0062,-0.9753,-0.2971
888444,0.0061,-0.9720,-0.2841
888469,0.0062,-0.9656,-0.2546
888491,0.0066,-0.9629,-0.2394
888513,0.0070,-0.9607,-0.2244
888530,0.0076,-0.9592,-0.2098
888762,0.0122,-0.9703,-0.1401
888796,0.0115,-0.9719,-0.1449
888814,0.0111,-0.9724,-0.1476
888838,0.0106,-0.9725,-0.1533
888946,0.0099,-0.9703,-0.1663
888963,0.0100,-0.9698,-0.1672
888980,0.0101,-0.9692,-0.1677
889003,0.0103,-0.9683,-0.1676
889038,0.0103,-0.9674,-0.1659
889060,0.0103,-0.9670,-0.1646
889085,0.0103,-0.9664,-0.1609
889107,0.0101,-0.9662,-0.1588
889129,0.0101,-0.9661,-0.1565
889146,0.0100,-0.9662,-0.1541
889411,0.0081,-0.9521,0.2004
889474,0.0094,-0.9358,0.4023
889604,0.0125,-0.9010,0.6855
889621,0.0129,-0.8992,0.6901
889643,0.0134,-0.8986,0.6852
889665,0.0138,-0.8990,0.6710
889693,0.0145,-0.9028,0.6156
889715,0.0146,-0.9062,0.5757
889752,0.0144,-0.9155,0.4186
889772,0.0137,-0.9270,0.3577
889927,0.0068,-0.9718,-0.1570
889958,0.0057,-0.9769,-0.2272
889978,0.0054,-0.9789,-0.2540
890003,0.0046,-0.9814,-0.2914
890025,0.0045,-0.9821,-0.3024
890047,0.0044,-0.9823,-0.3088
890064,0.0043,-0.9822,-0.3112
890087,0.0044,-0.9810,-0.3052
890355,0.0098,-0.9672,-0.1458
890386,0.0114,-0.9675,-0.1410
890402,0.0114,-0.9675,-0.1410
890427,0.0129,-0.9684,-0.1400
890449,0.0138,-0.9688,-0.1409
890472,0.0153,-0.9695,-0.1440
890491,0.0160,-0.9697,-0.1462
890513,0.0166,-0.9697,-0.1488
890535,0.0172,-0.9697,-0.1514
890552,0.0177,-0.9696,-0.1539
890572,0.0187,-0.9692,-0.1586
890594,0.0189,-0.9690,-0.1605
890678,0.0195,-0.9669,-0.1644
890695,0.0195,-0.9664,-0.1639
891105,0.0219,-0.9689,-0.1173
891139,0.0219,-0.9690,-0.1038
891161,0.0219,-0.9691,-0.0957
891178,0.0217,-0.9690,-0.0869
891200,0.0217,-0.9690,-0.0775
891223,0.0219,-0.9688,-0.0576
891240,0.0219,-0.9685,-0.0475
891262,0.0219,-0.9683,-0.0375
891284,0.0219,-0.9680,-0.0277
891301,0.0219,-0.9679,-0.0184
891318,0.0219,-0.9677,-0.0099
891339,0.0220,-0.9672,0.0049
891381,0.0220,-0.9668,0.0160
891403,0.0221,-0.9667,0.0200
891777,0.0223,-0.9680,-0.0037
891886,0.0212,-0.9709,0.0186
891903,0.0211,-0.9707,0.0283
891923,0.0212,-0.9691,0.0555
891942,0.0216,-0.9679,0.0737
891964,0.0220,-0.9661,0.0953
891987,0.0227,-0.9639,0.1205
892008,0.0247,-0.9581,0.1819
892043,0.0272,-0.9512,0.2571
892065,0.0287,-0.9475,0.2992
892343,0.0319,-0.9330,0.4799
892371,0.0294,-0.9371,0.4259
892462,0.0121,-0.9628,0.0609
892479,0.0092,-0.9664,0.0040
892501,0.0065,-0.9696,-0.0491
892524,0.0016,-0.9747,-0.1418
892541,-0.0006,-0.9766,-0.1805
892558,-0.0024,-0.9780,-0.2139
892580,-0.0042,-0.9790,-0.2416
892615,-0.0063,-0.9797,-0.2810
892637,-0.0070,-0.9794,-0.2931
892662,-0.0074,-0.9775,-0.3037
892684,-0.0074,-0.9761,-0.3031
892972,0.0072,-0.9600,-0.1371
893035,0.0101,-0.9628,-0.1299
893093,0.0110,-0.9674,-0.1016
893118,0.0111,-0.9683,-0.0874
893141,0.0121,-0.9695,-0.0479
893163,0.0133,-0.9697,-0.0221
893184,0.0150,-0.9696,0.0079
893207,0.0209,-0.9680,0.0812
893229,0.0249,-0.9666,0.1246
893257,0.0354,-0.9623,0.2246
893279,0.0414,-0.9594,0.2798
893303,0.0476,-0.9559,0.3368
893326,0.0596,-0.9482,0.4492
893604,0.0524,-0.9563,0.2240
893636,0.0397,-0.9629,0.0927
893664,0.0272,-0.9670,-0.0308
893790,-0.0060,-0.9713,-0.3307
893814,-0.0076,-0.9713,-0.3427
893835,-0.0085,-0.9712,-0.3495
893854,-0.0092,-0.9709,-0.3518
893883,-0.0092,-0.9703,-0.3444
893903,-0.0088,-0.9698,-0.3357
893925,-0.0076,-0.9689,-0.3113
893946,-0.0066,-0.9683,-0.2968
893965,-0.0056,-0.9675,-0.2814
894150,0.0092,-0.9641,-0.1514
894213,0.0139,-0.9656,-0.1437
894235,0.0149,-0.9661,-0.1444
894254,0.0157,-0.9667,-0.1459
894436,0.0168,-0.9691,-0.1749
894467,0.0162,-0.9683,-0.1760
894488,0.0159,-0.9679,-0.1743
894512,0.0150,-0.9675,-0.1625
894534,0.0144,-0.9677,-0.1506
894556,0.0139,-0.9680,-0.1339
894573,0.0133,-0.9684,-0.1115
894753,0.0184,-0.9387,0.4564
894784,0.0206,-0.9304,0.5398
894807,0.0216,-0.9275,0.5669
894829,0.0233,-0.9232,0.5886
894850,0.0240,-0.9220,0.5829
894870,0.0247,-0.9216,0.5665
895016,0.0215,-0.9436,0.1132
895064,0.0189,-0.9572,-0.0597
895088,0.0182,-0.9618,-0.1101
895111,0.0167,-0.9707,-0.1959
895129,0.0161,-0.9746,-0.2307
895155,0.0155,-0.9779,-0.2599
895178,0.0145,-0.9825,-0.3013
895359,0.0159,-0.9644,-0.2460
895422,0.0170,-0.9572,-0.2028
895439,0.0175,-0.9557,-0.1892
895462,0.0183,-0.9545,-0.1615
895484,0.0187,-0.9548,-0.1455
895703,0.0302,-0.9316,0.4612
895746,0.0317,-0.9187,0.5756
895768,0.0316,-0.9156,0.5925
895785,0.0311,-0.9131,0.5980
895936,0.0101,-0.9288,0.2255
895967,0.0044,-0.9395,0.0939
895987,0.0017,-0.9448,0.0299
896011,-0.0028,-0.9556,-0.0886
896032,-0.0046,-0.9606,-0.1414
896054,-0.0061,-0.9653,-0.1888
896079,-0.0082,-0.9734,-0.2664
896101,-0.0088,-0.9768,-0.2960
896260,-0.0029,-0.9830,-0.3143
896290,-0.0016,-0.9817,-0.2993
896313,0.0011,-0.9783,-0.2670
896330,0.0024,-0.9764,-0.2506
896352,0.0035,-0.9745,-0.2347
896374,0.0046,-0.9725,-0.2196
896395,0.0063,-0.9688,-0.1925
896573,0.0098,-0.9659,-0.0455
896633,0.0134,-0.9517,0.1195
896650,0.0154,-0.9457,0.1692
896672,0.0176,-0.9393,0.2190
896695,0.0223,-0.9275,0.3110
896712,0.0245,-0.9221,0.3500
896947,0.0138,-0.9329,0.1096
896978,0.0088,-0.9436,0.0098
897000,0.0065,-0.9492,-0.0377
897048,0.0011,-0.9655,-0.1626
897069,-0.0002,-0.9702,-0.1964
897086,-0.0013,-0.9747,-0.2257
897121,-0.0028,-0.9822,-0.2706
897147,-0.0033,-0.9875,-0.2975
897165,-0.0032,-0.9894,-0.3047
897182,-0.0028,-0.9905,-0.3081
897204,-0.0021,-0.9911,-0.3081
897240,0.0000,-0.9904,-0.2994
897263,0.0027,-0.9874,-0.2821
897287,0.0042,-0.9852,-0.2714
897310,0.0070,-0.9800,-0.2476
897691,0.0292,-0.9310,0.2776
897755,0.0323,-0.9069,0.4683
897772,0.0323,-0.9037,0.4963
897795,0.0310,-0.9000,0.5221
897819,0.0299,-0.8997,0.5194
897840,0.0283,-0.9003,0.5066
897863,0.0245,-0.9047,0.4532
897882,0.0222,-0.9083,0.4146
897900,0.0198,-0.9127,0.3694
897919,0.0173,-0.9178,0.3191
897940,0.0146,-0.9233,0.2649
897975,0.0096,-0.9355,0.1504
897998,0.0052,-0.9480,0.0358
898415,0.0088,-0.9659,-0.1934
898447,0.0100,-0.9652,-0.1736
898469,0.0106,-0.9653,-0.1638
898494,0.0116,-0.9661,-0.1395
898516,0.0120,-0.9659,-0.1227
898538,0.0126,-0.9653,-0.1016
898555,0.0132,-0.9640,-0.0753
898576,0.0139,-0.9620,-0.0437
898599,0.0160,-0.9576,0.0363
898616,0.0172,-0.9550,0.0836
898633,0.0183,-0.9519,0.1350
898655,0.0195,-0.9480,0.1888
898698,0.0231,-0.9337,0.3470
898720,0.0243,-0.9296,0.3918
899020,-0.0034,-0.9608,-0.0510
899083,-0.0072,-0.9692,-0.2147
899193,-0.0027,-0.9690,-0.3171
899212,-0.0001,-0.9673,-0.3171
899236,0.0013,-0.9667,-0.3125
899258,0.0029,-0.9661,-0.3054
899287,0.0063,-0.9653,-0.2856
899309,0.0082,-0.9651,-0.2738
899334,0.0117,-0.9647,-0.2485
899356,0.0133,-0.9644,-0.2357
899379,0.0156,-0.9636,-0.2113
899652,0.0260,-0.9574,0.1147
899681,0.0283,-0.9486,0.2137
899704,0.0293,-0.9441,0.2614
899729,0.0309,-0.9366,0.3435
899751,0.0314,-0.9336,0.3752
899773,0.0315,-0.9309,0.3992
899790,0.0314,-0.9288,0.4147
899811,0.0308,-0.9276,0.4213
899831,0.0283,-0.9270,0.4081
899854,0.0265,-0.9276,0.3890
899894,0.0222,-0.9303,0.3296
899922,0.0172,-0.9341,0.2480
899944,0.0146,-0.9363,0.2017
899964,0.0099,-0.9418,0.1035
899981,0.0077,-0.9449,0.0540
900381,0.0188,-0.9697,-0.2085
900445,0.0205,-0.9666,-0.1796
900466,0.0214,-0.9645,-0.1654
900488,0.0216,-0.9633,-0.1600
900510,0.0219,-0.9622,-0.1556
900527,0.0220,-0.9612,-0.1523
900550,0.0221,-0.9598,-0.1486
900572,0.0220,-0.9596,-0.1481
900591,0.0219,-0.9597,-0.1483
900611,0.0217,-0.9601,-0.1493
900634,0.0210,-0.9611,-0.1527
900662,0.0205,-0.9615,-0.1863
900685,0.0192,-0.9629,-0.1605
901033,0.0176,-0.9669,-0.1654
901101,0.0168,-0.9658,-0.1575
901118,0.0167,-0.9658,-0.1554
901140,0.0166,-0.9659,-0.1533
901162,0.0166,-0.9661,-0.1511
901179,0.0166,-0.9662,-0.1490
901205,0.0167,-0.9667,-0.1450
901227,0.0170,-0.9668,-0.1431
901249,0.0173,-0.9672,-0.1398
901271,0.0176,-0.9673,-0.1384
901293,0.0178,-0.9674,-0.1373
901321,0.0186,-0.9675,-0.1361
901620,0.0225,-0.9667,-0.0444
901683,0.0223,-0.9666,-0.0153
901770,0.0220,-0.9668,0.0032
901792,0.0219,-0.9668,0.0043
901815,0.0217,-0.9669,0.0045
901858,0.0216,-0.9672,0.0026
901878,0.0216,-0.9672,0.0011
901902,0.0215,-0.9673,-0.0027
901924,0.0215,-0.9674,-0.0046
901946,0.0215,-0.9674,-0.0067
901963,0.0215,-0.9674,-0.0087
901986,0.0215,-0.9675,-0.0123
902249,0.0217,-0.9672,-0.0172
902281,0.0217,-0.9672,-0.0167
902309,0.0217,-0.9672,-0.0156
902368,0.0216,-0.9672,-0.0138
902390,0.0216,-0.9673,-0.0134
902412,0.0215,-0.9673,-0.0132
902435,0.0215,-0.9673,-0.0128
902452,0.0215,-0.9673,-0.0128
902469,0.0215,-0.9673,-0.0127
902491,0.0215,-0.9673,-0.0127
902527,0.0214,-0.9674,-0.0128
902550,0.0214,-0.9674,-0.0131
902574,0.0214,-0.9674,-0.0133
902596,0.0214,-0.9674,-0.0134
902871,0.0215,-0.9674,-0.0144
902934,0.0215,-0.9674,-0.0143
903071,0.0215,-0.9674,-0.0140
903088,0.0215,-0.9674,-0.0140
903110,0.0215,-0.9675,-0.0140
903131,0.0215,-0.9675,-0.0140
903159,0.0215,-0.9674,-0.0140
903181,0.0215,-0.9674,-0.0140
903216,0.0215,-0.9674,-0.0140
903238,0.0215,-0.9674,-0.0140
903373,0.0215,-0.9672,-0.0142
903406,0.0216,-0.9672,-0.0142
903428,0.0216,-0.9672,-0.0142
903445,0.0216,-0.9672,-0.0142
903468,0.0216,-0.9672,-0.0142
903490,0.0217,-0.9672,-0.0142
903514,0.0217,-0.9672,-0.0142
903537,0.0217,-0.9672,-0.0142
903797,0.0219,-0.9675,-0.0143
903829,0.0219,-0.9675,-0.0143
903848,0.0219,-0.9675,-0.0143
903873,0.0217,-0.9675,-0.0143
903892,0.0217,-0.9675,-0.0143
903914,0.0217,-0.9675,-0.0143
903941,0.0217,-0.9675,-0.0142
903963,0.0216,-0.9675,-0.0142
903986,0.0216,-0.9675,-0.0142
904003,0.0216,-0.9675,-0.0142
904021,0.0216,-0.9675,-0.0142
904043,0.0215,-0.9675,-0.0142
904114,0.0215,-0.9675,-0.0140
904131,0.0215,-0.9675,-0.0140
904151,0.0215,-0.9675,-0.0140
904534,0.0215,-0.9673,-0.0143
904566,0.0215,-0.9673,-0.0143
904589,0.0214,-0.9673,-0.0143
904606,0.0214,-0.9673,-0.0143
904628,0.0214,-0.9673,-0.0143
904649,0.0214,-0.9672,-0.0143
904672,0.0214,-0.9672,-0.0143
904694,0.0214,-0.9672,-0.0143
904716,0.0215,-0.9672,-0.0143
904733,0.0215,-0.9672,-0.0143
904751,0.0215,-0.9672,-0.0143
904773,0.0215,-0.9672,-0.0143
904816,0.0216,-0.9672,-0.0143
904837,0.0216,-0.9672,-0.0143
905125,0.0216,-0.9674,-0.0142
905189,0.0216,-0.9674,-0.0143
905306,0.0216,-0.9674,-0.0144
905324,0.0216,-0.9674,-0.0144
905341,0.0216,-0.9674,-0.0144
905363,0.0216,-0.9674,-0.0144
905400,0.0216,-0.9674,-0.0144
905423,0.0216,-0.9674,-0.0144
905447,0.0217,-0.9674,-0.0144
905470,0.0217,-0.9674,-0.0143
905492,0.0217,-0.9674,-0.0143
905753,0.0215,-0.9672,-0.0140
905784,0.0215,-0.9672,-0.0140
905810,0.0215,-0.9670,-0.0140
905831,0.0215,-0.9670,-0.0140
905853,0.0215,-0.9670,-0.0140
905872,0.0216,-0.9670,-0.0140
905889,0.0216,-0.9670,-0.0140
905911,0.0216,-0.9670,-0.0140
905933,0.0216,-0.9670,-0.0140
905950,0.0216,-0.9670,-0.0140
905967,0.0216,-0.9670,-0.0142
905990,0.0216,-0.9670,-0.0142
906033,0.0216,-0.9670,-0.0142
906056,0.0216,-0.9670,-0.0142
906080,0.0216,-0.9672,-0.0142
906103,0.0216,-0.9672,-0.0143
906484,0.0216,-0.9675,-0.0143
906562,0.0216,-0.9675,-0.0142
906579,0.0216,-0.9675,-0.0142
906601,0.0215,-0.9675,-0.0142
906624,0.0215,-0.9675,-0.0140
906641,0.0215,-0.9675,-0.0140
906663,0.0215,-0.9674,-0.0140
906685,0.0215,-0.9674,-0.0140
906716,0.0215,-0.9674,-0.0139
906738,0.0215,-0.9674,-0.0139
906761,0.0214,-0.9674,-0.0140
906783,0.0214,-0.9674,-0.0140
907116,0.0215,-0.9674,-0.0143
907158,0.0216,-0.9674,-0.0143
907180,0.0216,-0.9674,-0.0143
907197,0.0216,-0.9674,-0.0143
907220,0.0216,-0.9674,-0.0142
907241,0.0216,-0.9674,-0.0142
907264,0.0216,-0.9674,-0.0142
907287,0.0216,-0.9674,-0.0142
907319,0.0216,-0.9674,-0.0142
907352,0.0216,-0.9674,-0.0142
907375,0.0216,-0.9674,-0.0142
907392,0.0216,-0.9674,-0.0142
907414,0.0216,-0.9674,-0.0142
907734,0.0215,-0.9670,-0.0140
907799,0.0214,-0.9670,-0.0140
907818,0.0214,-0.9670,-0.0140
907838,0.0214,-0.9670,-0.0140
907857,0.0214,-0.9672,-0.0140
907874,0.0214,-0.9672,-0.0140
907894,0.0214,-0.9672,-0.0140
907916,0.0214,-0.9672,-0.0140
907941,0.0214,-0.9673,-0.0140
907958,0.0214,-0.9673,-0.0140
907980,0.0214,-0.9673,-0.0140
908023,0.0214,-0.9673,-0.0140
908375,0.0215,-0.9669,-0.0140
908432,0.0215,-0.9669,-0.0140
908449,0.0215,-0.9669,-0.0140
908472,0.0215,-0.9669,-0.0140
908494,0.0215,-0.9669,-0.0142
908511,0.0215,-0.9669,-0.0142
908533,0.0215,-0.9669,-0.0142
908556,0.0214,-0.9669,-0.0142
908573,0.0214,-0.9669,-0.0142
908590,0.0214,-0.9669,-0.0142
908612,0.0214,-0.9669,-0.0142
908656,0.0214,-0.9670,-0.0143
908678,0.0214,-0.9670,-0.0143
908964,0.0215,-0.9672,-0.0145
909027,0.0214,-0.9673,-0.0145
909132,0.0212,-0.9673,-0.0144
909155,0.0212,-0.9673,-0.0143
909179,0.0212,-0.9673,-0.0143
909222,0.0212,-0.9673,-0.0142
909244,0.0212,-0.9674,-0.0142
909267,0.0212,-0.9674,-0.0142
909287,0.0212,-0.9674,-0.0142
909310,0.0212,-0.9674,-0.0140
909335,0.0212,-0.9674,-0.0140
909521,0.0214,-0.9673,-0.0142
909539,0.0214,-0.9673,-0.0142
909561,0.0214,-0.9673,-0.0142
909583,0.0214,-0.9673,-0.0143
909613,0.0214,-0.9673,-0.0143
909635,0.0214,-0.9673,-0.0143
909788,0.0214,-0.9673,-0.0144
909820,0.0214,-0.9674,-0.0144
909841,0.0215,-0.9674,-0.0143
909863,0.0215,-0.9674,-0.0143
909882,0.0215,-0.9674,-0.0143
909904,0.0215,-0.9674,-0.0143
909929,0.0215,-0.9674,-0.0142
910154,0.0215,-0.9674,-0.0142
910217,0.0215,-0.9673,-0.0142
910234,0.0215,-0.9673,-0.0142
910346,0.0215,-0.9672,-0.0142
910365,0.0215,-0.9670,-0.0142
910387,0.0215,-0.9670,-0.0142
910410,0.0215,-0.9670,-0.0140
910438,0.0215,-0.9670,-0.0140
910461,0.0214,-0.9670,-0.0140
910485,0.0214,-0.9670,-0.0140
910508,0.0214,-0.9670,-0.0140
910530,0.0214,-0.9670,-0.0140
910725,0.0212,-0.9670,-0.0143
910756,0.0212,-0.9670,-0.0143
910779,0.0212,-0.9670,-0.0144
910796,0.0214,-0.9670,-0.0144
910816,0.0214,-0.9672,-0.0144
910836,0.0214,-0.9672,-0.0144
911022,0.0212,-0.9673,-0.0144
911051,0.0212,-0.9673,-0.0143
911074,0.0212,-0.9673,-0.0143
911098,0.0211,-0.9673,-0.0143
911120,0.0212,-0.9673,-0.0142
911143,0.0212,-0.9673,-0.0142
911160,0.0212,-0.9673,-0.0140
911376,0.0215,-0.9673,-0.0140
911441,0.0216,-0.9673,-0.0142
911458,0.0216,-0.9673,-0.0142
911575,0.0215,-0.9673,-0.0142
911594,0.0215,-0.9673,-0.0142
911616,0.0215,-0.9673,-0.0140
911638,0.0215,-0.9673,-0.0140
911678,0.0214,-0.9673,-0.0140
911700,0.0214,-0.9673,-0.0139
911717,0.0214,-0.9673,-0.0139
911739,0.0214,-0.9673,-0.0139
911762,0.0214,-0.9673,-0.0139
911946,0.0214,-0.9675,-0.0140
911977,0.0214,-0.9675,-0.0142
911999,0.0214,-0.9675,-0.0142
912024,0.0214,-0.9675,-0.0142
912046,0.0214,-0.9675,-0.0142
912068,0.0214,-0.9675,-0.0142
912264,0.0215,-0.9673,-0.0140
912295,0.0214,-0.9673,-0.0140
912317,0.0214,-0.9672,-0.0140
912334,0.0214,-0.9672,-0.0140
912356,0.0214,-0.9672,-0.0140
912379,0.0214,-0.9672,-0.0140
912536,0.0212,-0.9673,-0.0142
912599,0.0212,-0.9674,-0.0142
912616,0.0212,-0.9674,-0.0142
912638,0.0212,-0.9674,-0.0142
912661,0.0212,-0.9675,-0.0142
912678,0.0214,-0.9675,-0.0143
912859,0.0215,-0.9677,-0.0143
912890,0.0215,-0.9677,-0.0143
912910,0.0214,-0.9675,-0.0143
912933,0.0214,-0.9675,-0.0142
912955,0.0214,-0.9675,-0.0142
912978,0.0214,-0.9675,-0.0142
912995,0.0214,-0.9674,-0.0140
913130,0.0214,-0.9674,-0.0138
913161,0.0214,-0.9674,-0.0138
913183,0.0214,-0.9674,-0.0138
913207,0.0214,-0.9674,-0.0138
913230,0.0214,-0.9674,-0.0138
913252,0.0214,-0.9674,-0.0138
913269,0.0214,-0.9674,-0.0138
913292,0.0214,-0.9674,-0.0139
913512,0.0214,-0.9672,-0.0142
913545,0.0214,-0.9672,-0.0142
913567,0.0214,-0.9672,-0.0142
913584,0.0214,-0.9672,-0.0142
913606,0.0214,-0.9672,-0.0142
913761,0.0212,-0.9672,-0.0140
913825,0.0214,-0.9672,-0.0140
913847,0.0214,-0.9672,-0.0140
913868,0.0214,-0.9673,-0.0140
913888,0.0214,-0.9673,-0.0140
913905,0.0214,-0.9673,-0.0140
914081,0.0215,-0.9672,-0.0140
914112,0.0215,-0.9672,-0.0140
914134,0.0215,-0.9670,-0.0140
914151,0.0215,-0.9670,-0.0140
914173,0.0214,-0.9670,-0.0140
914196,0.0214,-0.9670,-0.0140
914213,0.0214,-0.9670,-0.0140
914354,0.0214,-0.9672,-0.0139
914385,0.0214,-0.9673,-0.0139
914407,0.0214,-0.9673,-0.0139
914424,0.0214,-0.9673,-0.0139
914447,0.0214,-0.9674,-0.0138
914468,0.0214,-0.9674,-0.0138
914485,0.0214,-0.9674,-0.0138
914507,0.0214,-0.9674,-0.0138
914777,0.0212,-0.9673,-0.0139
914841,0.0212,-0.9673,-0.0139
914862,0.0212,-0.9672,-0.0139
914882,0.0212,-0.9672,-0.0139
914902,0.0212,-0.9672,-0.0138
914926,0.0214,-0.9672,-0.0138
914948,0.0214,-0.9672,-0.0138
914968,0.0214,-0.9672,-0.0138
914987,0.0214,-0.9672,-0.0138
915010,0.0214,-0.9673,-0.0138
915032,0.0214,-0.9673,-0.0139
915060,0.0214,-0.9673,-0.0139
915082,0.0214,-0.9674,-0.0139
915106,0.0214,-0.9674,-0.0139
915129,0.0214,-0.9674,-0.0139
915507,0.0215,-0.9673,-0.0140
915565,0.0215,-0.9673,-0.0140
915584,0.0215,-0.9673,-0.0140
915606,0.0215,-0.9673,-0.0140
915629,0.0215,-0.9673,-0.0140
915646,0.0215,-0.9673,-0.0140
915668,0.0215,-0.9673,-0.0139
915690,0.0215,-0.9673,-0.0139
915707,0.0214,-0.9673,-0.0139
915724,0.0214,-0.9673,-0.0139
915747,0.0214,-0.9672,-0.0139
915790,0.0214,-0.9672,-0.0139
915814,0.0214,-0.9672,-0.0139
916068,0.0212,-0.9670,-0.0140
916131,0.0212,-0.9672,-0.0140
916265,0.0211,-0.9673,-0.0139
916282,0.0211,-0.9673,-0.0139
916304,0.0211,-0.9673,-0.0139
916327,0.0211,-0.9673,-0.0139
916356,0.0211,-0.9673,-0.0139
916379,0.0211,-0.9673,-0.0139
916403,0.0211,-0.9673,-0.0139
916425,0.0212,-0.9673,-0.0139
916562,0.0214,-0.9673,-0.0139
916593,0.0214,-0.9673,-0.0139
916615,0.0214,-0.9673,-0.0139
916632,0.0214,-0.9673,-0.0139
916654,0.0214,-0.9673,-0.0140
916677,0.0214,-0.9673,-0.0140
916694,0.0214,-0.9673,-0.0140
916716,0.0214,-0.9673,-0.0140
916738,0.0214,-0.9673,-0.0140
916998,0.0215,-0.9672,-0.0140
917041,0.0215,-0.9672,-0.0140
917064,0.0215,-0.9672,-0.0139
917081,0.0215,-0.9672,-0.0139
917103,0.0215,-0.9672,-0.0139
917125,0.0215,-0.9672,-0.0139
917146,0.0214,-0.9672,-0.0139
917168,0.0214,-0.9672,-0.0139
917190,0.0214,-0.9672,-0.0139
917211,0.0214,-0.9672,-0.0139
917233,0.0214,-0.9672,-0.0139
917255,0.0214,-0.9672,-0.0139
917312,0.0214,-0.9673,-0.0139
917329,0.0214,-0.9673,-0.0139
917722,0.0214,-0.9673,-0.0140
917767,0.0214,-0.9673,-0.0140
917789,0.0214,-0.9673,-0.0140
917806,0.0214,-0.9673,-0.0140
917825,0.0212,-0.9674,-0.0140
917848,0.0212,-0.9674,-0.0140
917870,0.0212,-0.9674,-0.0140
917891,0.0212,-0.9674,-0.0140
917914,0.0212,-0.9674,-0.0140
917931,0.0211,-0.9674,-0.0140
917948,0.0211,-0.9674,-0.0140
917970,0.0211,-0.9674,-0.0140
918013,0.0211,-0.9673,-0.0142
918300,0.0215,-0.9669,-0.0139
918363,0.0216,-0.9670,-0.0139
918481,0.0216,-0.9673,-0.0139
918503,0.0216,-0.9673,-0.0139
918520,0.0216,-0.9674,-0.0139
918542,0.0215,-0.9674,-0.0139
918571,0.0215,-0.9674,-0.0139
918591,0.0215,-0.9675,-0.0139
918616,0.0215,-0.9675,-0.0140
918638,0.0215,-0.9675,-0.0140
918661,0.0214,-0.9675,-0.0140
918890,0.0212,-0.9674,-0.0140
918919,0.0212,-0.9674,-0.0140
918941,0.0212,-0.9674,-0.0140
918966,0.0212,-0.9674,-0.0140
919063,0.0214,-0.9674,-0.0140
919080,0.0215,-0.9674,-0.0140
919101,0.0215,-0.9674,-0.0140
919123,0.0215,-0.9674,-0.0140
919152,0.0215,-0.9674,-0.0140
919174,0.0215,-0.9674,-0.0140
919199,0.0215,-0.9674,-0.0140
919221,0.0216,-0.9674,-0.0140
919243,0.0216,-0.9674,-0.0140
919261,0.0216,-0.9674,-0.0140
919500,0.0216,-0.9672,-0.0139
919563,0.0216,-0.9673,-0.0139
919580,0.0216,-0.9673,-0.0139
919710,0.0215,-0.9673,-0.0139
919751,0.0214,-0.9673,-0.0139
919773,0.0214,-0.9673,-0.0139
919792,0.0214,-0.9673,-0.0139
919815,0.0214,-0.9672,-0.0139
919835,0.0214,-0.9672,-0.0139
919858,0.0214,-0.9672,-0.0139
919878,0.0214,-0.9672,-0.0139
920076,0.0215,-0.9672,-0.0140
920107,0.0214,-0.9672,-0.0140
920128,0.0214,-0.9672,-0.0140
920152,0.0214,-0.9672,-0.0140
920174,0.0214,-0.9672,-0.0140
920345,0.0212,-0.9672,-0.0140
920376,0.0212,-0.9672,-0.0140
920399,0.0212,-0.9673,-0.0140
920416,0.0212,-0.9673,-0.0140
920438,0.0212,-0.9672,-0.0140
920460,0.0212,-0.9672,-0.0140
920478,0.0214,-0.9672,-0.0140
920672,0.0214,-0.9670,-0.0138
920735,0.0214,-0.9670,-0.0139
920752,0.0214,-0.9670,-0.0139
920774,0.0214,-0.9670,-0.0139
920797,0.0215,-0.9670,-0.0139
920938,0.0215,-0.9672,-0.0139
920967,0.0215,-0.9672,-0.0139
920989,0.0215,-0.9672,-0.0139
921014,0.0215,-0.9673,-0.0139
921036,0.0215,-0.9673,-0.0139
921058,0.0215,-0.9673,-0.0139
921075,0.0215,-0.9673,-0.0139
921098,0.0215,-0.9673,-0.0139
921258,0.0214,-0.9674,-0.0139
921289,0.0214,-0.9674,-0.0138
921312,0.0214,-0.9673,-0.0138
921329,0.0214,-0.9673,-0.0138
921351,0.0214,-0.9673,-0.0138
921373,0.0214,-0.9673,-0.0137
921390,0.0214,-0.9673,-0.0137
921636,0.0215,-0.9672,-0.0134
921667,0.0215,-0.9672,-0.0134
921687,0.0215,-0.9672,-0.0134
921712,0.0215,-0.9672,-0.0135
921781,0.0215,-0.9672,-0.0137
921802,0.0215,-0.9672,-0.0137
921821,0.0215,-0.9673,-0.0137
921842,0.0215,-0.9673,-0.0137
921902,0.0215,-0.9673,-0.0138
921919,0.0215,-0.9673,-0.0138
921941,0.0215,-0.9673,-0.0138
921964,0.0215,-0.9673,-0.0138
921981,0.0215,-0.9672,-0.0137
922003,0.0215,-0.9672,-0.0137
922304,0.0214,-0.9669,-0.0144
922347,0.0214,-0.9669,-0.0142
922408,0.0214,-0.9669,-0.0139
922425,0.0212,-0.9669,-0.0138
922448,0.0212,-0.9669,-0.0137
922470,0.0211,-0.9669,-0.0135
922487,0.0211,-0.9669,-0.0135
922509,0.0211,-0.9669,-0.0134
922526,0.0210,-0.9669,-0.0133
922562,0.0211,-0.9670,-0.0132
922585,0.0212,-0.9672,-0.0132
922609,0.0214,-0.9673,-0.0132
922632,0.0217,-0.9679,-0.0134
922654,0.0220,-0.9685,-0.0137
922920,0.0251,-0.9899,-0.0085
922983,0.0264,-1.0114,-0.0073
923119,0.0103,-1.0552,0.0018
923136,0.0072,-1.0625,0.0044
923158,0.0044,-1.0706,0.0076
923181,-0.0005,-1.0887,0.0154
923210,-0.0024,-1.0984,0.0200
923231,-0.0048,-1.1177,0.0306
923255,-0.0050,-1.1268,0.0367
923277,-0.0049,-1.1351,0.0432
923439,0.0260,-1.1294,0.1169
923470,0.0371,-1.1040,0.1288
923492,0.0431,-1.0887,0.1338
923509,0.0493,-1.0719,0.1381
923532,0.0629,-1.0350,0.1445
923554,0.0701,-1.0157,0.1466
923578,0.0775,-0.9961,0.1479
923845,0.1904,-0.8569,0.1010
923878,0.1898,-0.8677,0.0924
923900,0.1818,-0.8812,0.0858
923917,0.1750,-0.8884,0.0837
923939,0.1665,-0.8955,0.0825
923961,0.1561,-0.9021,0.0823
923982,0.1306,-0.9130,0.0851
924004,0.1154,-0.9167,0.0880
924026,0.0984,-0.9193,0.0919
924043,0.0801,-0.9205,0.0967
924061,0.0605,-0.9203,0.1022
924084,0.0188,-0.9155,0.1149
924156,-0.0673,-0.8907,0.1422
924173,-0.0878,-0.8821,0.1486
924195,-0.1075,-0.8729,0.1547
924580,-0.1041,-0.9005,0.1477
924612,-0.0959,-0.9075,0.1453
924635,-0.0564,-0.9177,0.1416
924652,-0.0375,-0.9209,0.1404
924674,-0.0197,-0.9227,0.1398
924696,-0.0031,-0.9232,0.1396
924713,0.0120,-0.9222,0.1400
924736,0.0365,-0.9166,0.1421
924757,0.0459,-0.9122,0.1437
924779,0.0532,-0.9070,0.1455
924796,0.0585,-0.9009,0.1475
924819,0.0627,-0.8871,0.1509
924860,0.0582,-0.8713,0.1532
924882,0.0449,-0.8544,0.1537
925200,-0.0815,-0.8182,0.0327
925278,-0.0660,-0.8285,-0.0029
925301,-0.0588,-0.8413,-0.0138
925323,-0.0554,-0.8505,-0.0170
925345,-0.0522,-0.8616,-0.0187
925362,-0.0492,-0.8746,-0.0189
925385,-0.0438,-0.9060,-0.0155
925407,-0.0416,-0.9240,-0.0121
925439,-0.0385,-0.9626,-0.0024
925461,-0.0372,-0.9829,0.0034
925478,-0.0361,-1.0032,0.0096
925501,-0.0331,-1.0431,0.0228
925818,0.0380,-1.1409,0.0852
925860,0.0325,-1.1187,0.0863
925883,0.0244,-1.0929,0.0869
925901,0.0200,-1.0793,0.0869
925923,0.0156,-1.0654,0.0867
925945,0.0115,-1.0518,0.0863
925962,0.0077,-1.0383,0.0857
925985,0.0009,-1.0137,0.0840
926033,-0.0070,-0.9840,0.0801
926065,-0.0112,-0.9701,0.0771
926087,-0.0132,-0.9648,0.0757
926104,-0.0151,-0.9606,0.0743
926445,-0.0253,-0.9661,0.0585
926536,-0.0217,-0.9830,0.0507
926553,-0.0208,-0.9858,0.0494
926575,-0.0197,-0.9885,0.0482
926597,-0.0184,-0.9907,0.0470
926614,-0.0172,-0.9926,0.0455
926637,-0.0143,-0.9948,0.0420
926661,-0.0127,-0.9951,0.0398
926691,-0.0092,-0.9949,0.0350
926713,-0.0072,-0.9941,0.0325
926738,-0.0034,-0.9919,0.0270
927036,0.0126,-0.9648,0.0059
927068,0.0120,-0.9642,0.0065
927091,0.0116,-0.9641,0.0070
927116,0.0107,-0.9641,0.0077
927138,0.0104,-0.9644,0.0082
927160,0.0100,-0.9645,0.0085
927177,0.0096,-0.9647,0.0089
927200,0.0090,-0.9655,0.0095
927219,0.0088,-0.9657,0.0098
927240,0.0085,-0.9661,0.0100
927257,0.0083,-0.9664,0.0101
927279,0.0082,-0.9667,0.0103
927317,0.0081,-0.9675,0.0103
927337,0.0081,-0.9678,0.0103
927361,0.0081,-0.9679,0.0101
927753,0.0093,-0.9674,0.0095
927832,0.0093,-0.9674,0.0120
927855,0.0093,-0.9669,0.0159
927873,0.0093,-0.9664,0.0193
927894,0.0092,-0.9658,0.0239
927911,0.0092,-0.9652,0.0302
927934,0.0088,-0.9637,0.0477
927956,0.0084,-0.9631,0.0591
927989,0.0077,-0.9623,0.0854
928011,0.0073,-0.9620,0.0995
928028,0.0071,-0.9620,0.1136
928051,0.0070,-0.9624,0.1388
928342,0.0139,-0.9691,-0.0614
928375,0.0138,-0.9697,-0.1035
928482,0.0120,-0.9708,-0.1677
928500,0.0112,-0.9707,-0.1647
928522,0.0110,-0.9706,-0.1589
928544,0.0106,-0.9705,-0.1508
928576,0.0100,-0.9701,-0.1284
928598,0.0098,-0.9698,-0.1150
928615,0.0095,-0.9696,-0.1005
928638,0.0093,-0.9691,-0.0702
928660,0.0092,-0.9689,-0.0552
928677,0.0090,-0.9686,-0.0408
928853,0.0095,-0.9672,0.0375
928918,0.0098,-0.9673,0.0305
928935,0.0098,-0.9673,0.0273
928956,0.0098,-0.9674,0.0238
928978,0.0098,-0.9674,0.0200
929149,0.0096,-0.9677,-0.0085
929180,0.0095,-0.9677,-0.0101
929203,0.0095,-0.9675,-0.0105
929220,0.0094,-0.9675,-0.0103
929242,0.0094,-0.9675,-0.0099
929264,0.0094,-0.9675,-0.0092
929281,0.0094,-0.9674,-0.0084
929460,0.0094,-0.9674,0.0007
929493,0.0094,-0.9675,0.0013
929515,0.0094,-0.9675,0.0016
929532,0.0094,-0.9675,0.0017
929555,0.0095,-0.9675,0.0017
929577,0.0095,-0.9675,0.0016
929719,0.0096,-0.9675,-0.0006
929749,0.0096,-0.9675,-0.0009
929772,0.0098,-0.9674,-0.0012
929789,0.0098,-0.9674,-0.0013
929811,0.0098,-0.9674,-0.0015
929830,0.0098,-0.9674,-0.0015
929854,0.0098,-0.9674,-0.0016
929884,0.0098,-0.9674,-0.0015
930075,0.0096,-0.9675,-0.0006
930142,0.0096,-0.9675,-0.0006
930159,0.0096,-0.9675,-0.0006
930181,0.0098,-0.9675,-0.0006
930334,0.0098,-0.9674,-0.0012
930366,0.0096,-0.9674,-0.0012
930389,0.0096,-0.9674,-0.0012
930406,0.0096,-0.9674,-0.0013
930428,0.0096,-0.9674,-0.0013
930449,0.0096,-0.9674,-0.0013
930472,0.0096,-0.9674,-0.0012
930494,0.0096,-0.9674,-0.0012
930710,0.0095,-0.9677,-0.0007
930742,0.0095,-0.9677,-0.0007
930764,0.0095,-0.9677,-0.0006
930781,0.0095,-0.9677,-0.0006
930804,0.0095,-0.9675,-0.0006
930936,0.0095,-0.9674,-0.0006
930968,0.0095,-0.9673,-0.0007
930989,0.0095,-0.9673,-0.0007
931006,0.0095,-0.9673,-0.0007
931028,0.0095,-0.9673,-0.0007
931050,0.0095,-0.9673,-0.0009
931067,0.0095,-0.9673,-0.0009
931090,0.0095,-0.9673,-0.0010
931245,0.0094,-0.9674,-0.0010
931309,0.0094,-0.9675,-0.0007
931326,0.0095,-0.9675,-0.0007
931348,0.0095,-0.9675,-0.0006
931371,0.0095,-0.9675,-0.0006
931388,0.0095,-0.9675,-0.0006
931410,0.0096,-0.9675,-0.0005
931664,0.0098,-0.9673,-0.0004
931696,0.0098,-0.9673,-0.0005
931720,0.0098,-0.9673,-0.0005
931737,0.0098,-0.9673,-0.0005
931759,0.0096,-0.9673,-0.0005
931781,0.0096,-0.9673,-0.0005
931798,0.0096,-0.9673,-0.0005
931817,0.0096,-0.9673,-0.0005
931839,0.0095,-0.9673,-0.0005
931861,0.0095,-0.9673,-0.0005
931895,0.0095,-0.9672,-0.0005
931917,0.0095,-0.9672,-0.0004
931949,0.0095,-0.9672,-0.0004
931972,0.0095,-0.9672,-0.0004
931989,0.0095,-0.9672,-0.0004
932009,0.0095,-0.9672,-0.0004
932410,0.0094,-0.9672,-0.0007
932476,0.0094,-0.9672,-0.0007
932493,0.0094,-0.9672,-0.0006
932512,0.0094,-0.9672,-0.0006
932534,0.0094,-0.9672,-0.0006
932551,0.0094,-0.9672,-0.0006
932574,0.0094,-0.9672,-0.0005
932596,0.0094,-0.9672,-0.0005
932613,0.0094,-0.9672,-0.0005
932630,0.0094,-0.9672,-0.0004
932653,0.0094,-0.9672,-0.0004
932697,0.0095,-0.9673,-0.0004
933032,0.0096,-0.9674,-0.0007
933131,0.0095,-0.9674,-0.0009
933148,0.0095,-0.9674,-0.0009
933171,0.0095,-0.9675,-0.0009
933193,0.0095,-0.9675,-0.0009
933210,0.0095,-0.9675,-0.0009
933232,0.0095,-0.9675,-0.0009
933249,0.0095,-0.9675,-0.0009
933287,0.0096,-0.9675,-0.0009
933309,0.0096,-0.9675,-0.0009
933333,0.0096,-0.9675,-0.0009
933617,0.0098,-0.9675,-0.0007
933681,0.0098,-0.9675,-0.0006
933707,0.0098,-0.9675,-0.0006
933729,0.0098,-0.9675,-0.0006
933754,0.0098,-0.9674,-0.0006
933776,0.0096,-0.9674,-0.0007
933799,0.0096,-0.9674,-0.0007
933816,0.0096,-0.9674,-0.0007
933840,0.0096,-0.9674,-0.0007
933860,0.0096,-0.9674,-0.0007
933907,0.0095,-0.9673,-0.0007
933929,0.0095,-0.9673,-0.0007
933948,0.0095,-0.9673,-0.0007
933971,0.0095,-0.9673,-0.0007
934361,0.0096,-0.9673,-0.0007
934395,0.0096,-0.9673,-0.0007
934417,0.0096,-0.9673,-0.0007
934434,0.0096,-0.9673,-0.0007
934457,0.0095,-0.9674,-0.0006
934479,0.0095,-0.9674,-0.0006
934496,0.0095,-0.9674,-0.0006
934518,0.0094,-0.9674,-0.0006
934541,0.0094,-0.9674,-0.0007
934558,0.0094,-0.9674,-0.0007
934580,0.0094,-0.9674,-0.0007
934602,0.0094,-0.9674,-0.0007
934640,0.0094,-0.9674,-0.0007
934662,0.0094,-0.9674,-0.0009
934968,0.0094,-0.9674,-0.0006
935048,0.0094,-0.9675,-0.0005
935065,0.0094,-0.9675,-0.0005
935085,0.0094,-0.9675,-0.0005
935108,0.0094,-0.9675,-0.0005
935125,0.0094,-0.9675,-0.0005
935147,0.0094,-0.9675,-0.0005
935169,0.0094,-0.9675,-0.0005
935209,0.0094,-0.9675,-0.0005
935231,0.0094,-0.9675,-0.0005
935256,0.0094,-0.9675,-0.0006
935602,0.0095,-0.9673,-0.0007
935635,0.0095,-0.9673,-0.0007
935658,0.0095,-0.9673,-0.0007
935675,0.0095,-0.9673,-0.0007
935697,0.0095,-0.9673,-0.0007
935719,0.0095,-0.9673,-0.0007
935736,0.0095,-0.9673,-0.0007
935759,0.0095,-0.9673,-0.0007
935781,0.0095,-0.9673,-0.0007
935798,0.0095,-0.9673,-0.0007
935815,0.0095,-0.9673,-0.0007
935835,0.0094,-0.9673,-0.0007
935879,0.0095,-0.9672,-0.0007
935901,0.0095,-0.9672,-0.0007
935919,0.0095,-0.9672,-0.0007
936319,0.0095,-0.9674,-0.0009
936380,0.0095,-0.9674,-0.0007
936397,0.0096,-0.9674,-0.0007
936419,0.0096,-0.9674,-0.0007
936442,0.0096,-0.9674,-0.0007
936459,0.0096,-0.9674,-0.0007
936481,0.0096,-0.9674,-0.0007
936503,0.0096,-0.9674,-0.0007
936520,0.0096,-0.9674,-0.0007
936538,0.0096,-0.9673,-0.0007
936560,0.0096,-0.9673,-0.0007
936597,0.0096,-0.9673,-0.0007
936618,0.0096,-0.9673,-0.0007
936979,0.0096,-0.9672,-0.0011
937032,0.0095,-0.9673,-0.0010
937049,0.0095,-0.9673,-0.0010
937072,0.0095,-0.9673,-0.0009
937094,0.0095,-0.9673,-0.0009
937111,0.0095,-0.9673,-0.0009
937133,0.0095,-0.9673,-0.0007
937155,0.0094,-0.9673,-0.0006
937172,0.0094,-0.9673,-0.0006
937189,0.0094,-0.9673,-0.0006
937211,0.0094,-0.9673,-0.0005
937256,0.0094,-0.9673,-0.0004
937278,0.0094,-0.9674,-0.0004
937566,0.0094,-0.9675,-0.0006
937630,0.0094,-0.9675,-0.0007
937770,0.0094,-0.9674,-0.0010
937800,0.0094,-0.9674,-0.0010
937819,0.0094,-0.9674,-0.0011
937843,0.0094,-0.9674,-0.0011
937862,0.0094,-0.9674,-0.0011
937884,0.0094,-0.9674,-0.0011
937909,0.0095,-0.9674,-0.0011
937934,0.0095,-0.9674,-0.0011
938068,0.0096,-0.9673,-0.0011
938116,0.0096,-0.9673,-0.0012
938141,0.0096,-0.9673,-0.0012
938162,0.0096,-0.9673,-0.0013
938183,0.0096,-0.9673,-0.0013
938208,0.0096,-0.9673,-0.0013
938230,0.0096,-0.9673,-0.0013
938481,0.0095,-0.9673,-0.0010
938514,0.0095,-0.9674,-0.0010
938536,0.0095,-0.9674,-0.0009
938580,0.0094,-0.9674,-0.0007
938602,0.0094,-0.9674,-0.0007
938623,0.0094,-0.9674,-0.0006
938645,0.0094,-0.9674,-0.0006
938666,0.0093,-0.9674,-0.0006
938693,0.0093,-0.9674,-0.0006
938715,0.0092,-0.9674,-0.0006
938737,0.0092,-0.9674,-0.0006
938795,0.0089,-0.9673,-0.0006
938815,0.0089,-0.9673,-0.0007
938836,0.0089,-0.9673,-0.0007
939231,0.0096,-0.9673,-0.0021
939264,0.0095,-0.9673,-0.0023
939286,0.0095,-0.9673,-0.0026
939303,0.0095,-0.9672,-0.0027
939326,0.0095,-0.9672,-0.0028
939348,0.0095,-0.9670,-0.0029
939365,0.0095,-0.9670,-0.0029
939387,0.0095,-0.9670,-0.0028
939410,0.0095,-0.9670,-0.0026
939427,0.0095,-0.9670,-0.0024
939444,0.0094,-0.9670,-0.0022
939466,0.0094,-0.9670,-0.0020
939511,0.0095,-0.9670,-0.0011
939533,0.0095,-0.9670,-0.0009
939809,0.0101,-0.9678,-0.0004
939871,0.0103,-0.9678,-0.0010
940010,0.0105,-0.9664,-0.0023
940043,0.0106,-0.9659,-0.0027
940065,0.0107,-0.9657,-0.0028
940082,0.0109,-0.9655,-0.0029
940104,0.0110,-0.9653,-0.0031
940127,0.0111,-0.9652,-0.0033
940144,0.0112,-0.9652,-0.0034
940166,0.0114,-0.9653,-0.0037
940390,0.0126,-0.9698,-0.0057
940423,0.0127,-0.9697,-0.0054
940445,0.0127,-0.9696,-0.0051
940462,0.0127,-0.9695,-0.0049
940537,0.0129,-0.9684,-0.0035
940554,0.0129,-0.9681,-0.0032
940577,0.0132,-0.9674,-0.0024
940601,0.0132,-0.9672,-0.0021
940631,0.0134,-0.9666,-0.0013
940653,0.0135,-0.9663,-0.0011
940678,0.0138,-0.9659,-0.0006
940700,0.0140,-0.9658,-0.0004
940721,0.0142,-0.9658,-0.0002
940746,0.0144,-0.9657,0.0001
940768,0.0146,-0.9657,0.0002
941095,0.0182,-0.9680,-0.0074
941183,0.0187,-0.9684,-0.0098
941200,0.0188,-0.9684,-0.0098
941219,0.0189,-0.9683,-0.0096
941242,0.0193,-0.9681,-0.0093
941259,0.0194,-0.9680,-0.0089
941281,0.0195,-0.9679,-0.0084
941305,0.0197,-0.9678,-0.0079
941343,0.0198,-0.9674,-0.0062
941365,0.0197,-0.9673,-0.0057
941390,0.0193,-0.9669,-0.0046
941701,0.0187,-0.9658,-0.0000
941734,0.0188,-0.9664,-0.0007
941757,0.0188,-0.9672,-0.0016
941774,0.0187,-0.9674,-0.0018
941796,0.0186,-0.9677,-0.0022
941817,0.0183,-0.9679,-0.0024
941839,0.0181,-0.9680,-0.0026
941860,0.0176,-0.9683,-0.0026
941881,0.0173,-0.9684,-0.0024
941905,0.0170,-0.9684,-0.0023
941922,0.0166,-0.9684,-0.0022
941945,0.0160,-0.9684,-0.0020
941990,0.0149,-0.9680,-0.0018
942315,0.0150,-0.9661,0.0043
942425,0.0164,-0.9678,0.0067
942442,0.0164,-0.9680,0.0067
942464,0.0162,-0.9684,0.0068
942486,0.0161,-0.9686,0.0068
942503,0.0160,-0.9689,0.0068
942528,0.0155,-0.9691,0.0068
942550,0.0153,-0.9691,0.0067
942580,0.0145,-0.9688,0.0068
942602,0.0143,-0.9685,0.0068
942926,0.0096,-0.9652,0.0096
942957,0.0094,-0.9655,0.0096
942980,0.0093,-0.9656,0.0096
942997,0.0092,-0.9657,0.0096
943019,0.0092,-0.9659,0.0096
943042,0.0090,-0.9662,0.0098
943059,0.0090,-0.9663,0.0099
943081,0.0090,-0.9664,0.0100
943103,0.0090,-0.9666,0.0101
943120,0.0090,-0.9667,0.0104
943137,0.0092,-0.9667,0.0105
943160,0.0092,-0.9668,0.0109
943217,0.0093,-0.9668,0.0112
943579,0.0104,-0.9666,0.0118
943649,0.0107,-0.9668,0.0122
943666,0.0107,-0.9668,0.0122
943688,0.0107,-0.9668,0.0122
943711,0.0107,-0.9669,0.0121
943728,0.0109,-0.9669,0.0120
943750,0.0109,-0.9670,0.0118
943771,0.0109,-0.9670,0.0116
943790,0.0109,-0.9670,0.0115
943813,0.0107,-0.9670,0.0111
943833,0.0107,-0.9670,0.0110
943863,0.0106,-0.9669,0.0107
943884,0.0106,-0.9669,0.0106
944172,0.0109,-0.9667,0.0110
944205,0.0110,-0.9667,0.0111
944282,0.0114,-0.9668,0.0116
944299,0.0114,-0.9668,0.0116
944332,0.0115,-0.9668,0.0117
944359,0.0115,-0.9669,0.0117
944383,0.0115,-0.9669,0.0117
944405,0.0114,-0.9669,0.0117
944443,0.0112,-0.9669,0.0115
944465,0.0111,-0.9669,0.0115
944489,0.0111,-0.9669,0.0114
944512,0.0110,-0.9668,0.0112
944794,0.0110,-0.9666,0.0121
944859,0.0112,-0.9664,0.0128
944917,0.0112,-0.9664,0.0133
944936,0.0112,-0.9664,0.0135
944958,0.0112,-0.9664,0.0137
944981,0.0112,-0.9664,0.0139
944998,0.0112,-0.9664,0.0140
945015,0.0111,-0.9664,0.0142
945037,0.0111,-0.9664,0.0143
945082,0.0110,-0.9666,0.0144
945104,0.0110,-0.9666,0.0145
945129,0.0109,-0.9666,0.0145
945151,0.0109,-0.9667,0.0145
945460,0.0109,-0.9670,0.0137
945493,0.0110,-0.9669,0.0137
945600,0.0114,-0.9668,0.0143
945617,0.0114,-0.9667,0.0144
945639,0.0114,-0.9667,0.0145
945662,0.0115,-0.9666,0.0149
945694,0.0115,-0.9664,0.0151
945716,0.0114,-0.9664,0.0153
945733,0.0114,-0.9663,0.0154
945755,0.0114,-0.9663,0.0155
945777,0.0112,-0.9663,0.0156
945800,0.0112,-0.9663,0.0157
946024,0.0110,-0.9666,0.0151
946088,0.0111,-0.9666,0.0145
946105,0.0111,-0.9666,0.0144
946150,0.0112,-0.9666,0.0140
946167,0.0112,-0.9666,0.0139
946189,0.0112,-0.9666,0.0138
946212,0.0112,-0.9666,0.0137
946229,0.0112,-0.9666,0.0137
946246,0.0112,-0.9666,0.0137
946268,0.0112,-0.9666,0.0137
946305,0.0111,-0.9666,0.0137
946325,0.0111,-0.9666,0.0137
946343,0.0111,-0.9664,0.0138
946364,0.0110,-0.9664,0.0139
946386,0.0110,-0.9664,0.0140
946408,0.0109,-0.9664,0.0142
946748,0.0109,-0.9666,0.0150
946811,0.0107,-0.9667,0.0149
946835,0.0107,-0.9667,0.0149
946854,0.0106,-0.9668,0.0149
946875,0.0106,-0.9668,0.0148
946897,0.0105,-0.9668,0.0148
946919,0.0105,-0.9668,0.0148
946941,0.0105,-0.9668,0.0146
946961,0.0104,-0.9668,0.0146
946983,0.0104,-0.9668,0.0146
947005,0.0104,-0.9668,0.0146
947035,0.0103,-0.9668,0.0145
947323,0.0104,-0.9666,0.0157
947387,0.0104,-0.9666,0.0160
947555,0.0101,-0.9664,0.0159
947585,0.0100,-0.9664,0.0157
947607,0.0100,-0.9664,0.0157
947632,0.0099,-0.9666,0.0156
947654,0.0099,-0.9666,0.0156
947676,0.0099,-0.9666,0.0156
947693,0.0099,-0.9666,0.0156
947827,0.0100,-0.9666,0.0161
947859,0.0100,-0.9666,0.0162
947878,0.0101,-0.9666,0.0164
947901,0.0101,-0.9666,0.0164
947921,0.0101,-0.9666,0.0164
947943,0.0101,-0.9666,0.0165
947968,0.0101,-0.9667,0.0165
947990,0.0100,-0.9667,0.0165
948162,0.0103,-0.9669,0.0159
948207,0.0103,-0.9669,0.0156
948232,0.0104,-0.9669,0.0154
948254,0.0105,-0.9669,0.0153
948276,0.0105,-0.9669,0.0151
948293,0.0106,-0.9669,0.0150
948525,0.0112,-0.9667,0.0154
948591,0.0112,-0.9667,0.0162
948608,0.0112,-0.9667,0.0165
948698,0.0110,-0.9667,0.0177
948715,0.0110,-0.9667,0.0179
948739,0.0109,-0.9667,0.0181
948761,0.0109,-0.9667,0.0183
948791,0.0107,-0.9668,0.0186
948815,0.0106,-0.9667,0.0189
948836,0.0106,-0.9667,0.0192
948857,0.0106,-0.9667,0.0193
948877,0.0105,-0.9667,0.0195
948902,0.0105,-0.9666,0.0200
949154,0.0100,-0.9661,0.0216
949187,0.0100,-0.9662,0.0215
949209,0.0099,-0.9662,0.0215
949300,0.0098,-0.9667,0.0211
949322,0.0098,-0.9668,0.0210
949344,0.0098,-0.9668,0.0209
949369,0.0098,-0.9669,0.0208
949399,0.0098,-0.9668,0.0206
949420,0.0099,-0.9668,0.0206
949444,0.0099,-0.9668,0.0206
949467,0.0099,-0.9666,0.0206
949489,0.0099,-0.9664,0.0206
949506,0.0099,-0.9663,0.0206
949774,0.0093,-0.9658,0.0215
949838,0.0092,-0.9659,0.0214
949953,0.0090,-0.9663,0.0215
949975,0.0090,-0.9663,0.0215
949992,0.0090,-0.9663,0.0215
950015,0.0090,-0.9663,0.0216
950045,0.0092,-0.9663,0.0217
950068,0.0092,-0.9663,0.0219
950085,0.0092,-0.9663,0.0220
950107,0.0092,-0.9663,0.0221
950129,0.0092,-0.9663,0.0222
950147,0.0092,-0.9662,0.0225
950308,0.0089,-0.9662,0.0227
950338,0.0084,-0.9673,0.0220
950360,0.0081,-0.9679,0.0216
950385,0.0076,-0.9690,0.0208
950407,0.0073,-0.9694,0.0203
950426,0.0071,-0.9696,0.0198
950451,0.0071,-0.9695,0.0187
950662,0.0095,-0.9646,0.0090
950697,0.0098,-0.9642,0.0078
950720,0.0098,-0.9642,0.0076
950737,0.0098,-0.9644,0.0073
950868,0.0090,-0.9661,0.0070
950933,0.0084,-0.9669,0.0077
950950,0.0083,-0.9672,0.0079
950971,0.0082,-0.9673,0.0082
950993,0.0081,-0.9674,0.0083
951010,0.0079,-0.9675,0.0085
951033,0.0078,-0.9677,0.0089
951055,0.0078,-0.9678,0.0092
951258,0.0074,-0.9674,0.0101
951289,0.0076,-0.9673,0.0103
951311,0.0076,-0.9672,0.0103
951328,0.0077,-0.9670,0.0104
951351,0.0082,-0.9669,0.0105
951492,0.0126,-0.9661,0.0100
951524,0.0126,-0.9662,0.0088
951546,0.0122,-0.9663,0.0081
951563,0.0116,-0.9664,0.0070
951586,0.0096,-0.9667,0.0046
951608,0.0084,-0.9668,0.0034
951625,0.0072,-0.9669,0.0020
951647,0.0059,-0.9672,0.0006
951864,0.0007,-0.9692,-0.0118
951897,0.0021,-0.9694,-0.0122
951918,0.0037,-0.9694,-0.0121
951935,0.0045,-0.9694,-0.0121
951957,0.0054,-0.9695,-0.0120
952092,0.0101,-0.9695,-0.0073
952157,0.0110,-0.9686,-0.0018
952174,0.0111,-0.9684,-0.0002
952196,0.0111,-0.9681,0.0013
952219,0.0110,-0.9677,0.0045
952236,0.0110,-0.9674,0.0061
952258,0.0107,-0.9672,0.0076
952465,0.0092,-0.9663,0.0165
952496,0.0092,-0.9666,0.0164
952517,0.0093,-0.9669,0.0159
952541,0.0094,-0.9670,0.0156
952563,0.0095,-0.9673,0.0154
952711,0.0109,-0.9677,0.0162
952746,0.0109,-0.9674,0.0172
952769,0.0107,-0.9670,0.0183
952786,0.0107,-0.9668,0.0189
952810,0.0106,-0.9667,0.0195
952828,0.0106,-0.9666,0.0201
952852,0.0106,-0.9662,0.0212
952872,0.0106,-0.9661,0.0217
953061,0.0116,-0.9655,0.0247
953094,0.0120,-0.9656,0.0248
953117,0.0122,-0.9657,0.0248
953134,0.0123,-0.9658,0.0247
953156,0.0125,-0.9658,0.0247
953178,0.0126,-0.9659,0.0245
953284,0.0127,-0.9653,0.0234
953361,0.0127,-0.9648,0.0227
953378,0.0128,-0.9648,0.0225
953401,0.0129,-0.9651,0.0220
953423,0.0131,-0.9652,0.0216
953440,0.0132,-0.9655,0.0214
953462,0.0133,-0.9657,0.0211
953485,0.0135,-0.9662,0.0205
953750,0.0151,-0.9674,0.0208
953783,0.0151,-0.9673,0.0209
953930,0.0149,-0.9664,0.0214
953947,0.0149,-0.9664,0.0214
953964,0.0149,-0.9663,0.0214
953987,0.0148,-0.9662,0.0212
954025,0.0148,-0.9662,0.0210
954045,0.0148,-0.9662,0.0209
954070,0.0146,-0.9662,0.0205
954092,0.0146,-0.9663,0.0204
954267,0.0149,-0.9663,0.0195
954302,0.0149,-0.9663,0.0197
954324,0.0149,-0.9662,0.0198
954341,0.0149,-0.9662,0.0198
954363,0.0149,-0.9662,0.0199
954386,0.0149,-0.9662,0.0200
954582,0.0148,-0.9664,0.0206
954642,0.0148,-0.9664,0.0208
954659,0.0148,-0.9664,0.0208
954681,0.0146,-0.9664,0.0208
954826,0.0146,-0.9663,0.0209
954860,0.0148,-0.9663,0.0209
954881,0.0148,-0.9663,0.0209
954904,0.0149,-0.9663,0.0209
954926,0.0149,-0.9663,0.0209
954948,0.0149,-0.9664,0.0209
954965,0.0150,-0.9664,0.0209
954988,0.0151,-0.9664,0.0208
955196,0.0154,-0.9666,0.0203
955229,0.0154,-0.9664,0.0201
955251,0.0154,-0.9664,0.0201
955269,0.0153,-0.9664,0.0200
955291,0.0153,-0.9664,0.0200
955434,0.0151,-0.9663,0.0197
955469,0.0153,-0.9662,0.0197
955491,0.0153,-0.9662,0.0197
955508,0.0154,-0.9663,0.0198
955530,0.0154,-0.9663,0.0198
955551,0.0154,-0.9663,0.0198
955574,0.0155,-0.9663,0.0199
955596,0.0155,-0.9663,0.0200
955874,0.0151,-0.9663,0.0205
955935,0.0153,-0.9664,0.0205
955997,0.0153,-0.9664,0.0204
956020,0.0153,-0.9664,0.0203
956042,0.0153,-0.9664,0.0203
956063,0.0153,-0.9664,0.0203
956089,0.0153,-0.9664,0.0203
956111,0.0153,-0.9664,0.0203
956156,0.0151,-0.9664,0.0204
956178,0.0151,-0.9664,0.0204
956202,0.0151,-0.9664,0.0204
956225,0.0151,-0.9664,0.0205
956527,0.0149,-0.9662,0.0215
956563,0.0148,-0.9662,0.0216
956616,0.0148,-0.9662,0.0217
956633,0.0148,-0.9662,0.0217
956656,0.0148,-0.9662,0.0217
956678,0.0148,-0.9662,0.0217
956695,0.0148,-0.9663,0.0219
956717,0.0148,-0.9663,0.0219
956742,0.0149,-0.9663,0.0219
956772,0.0149,-0.9663,0.0220
956794,0.0149,-0.9663,0.0220
956818,0.0149,-0.9663,0.0220
956842,0.0150,-0.9663,0.0221
956864,0.0150,-0.9663,0.0221
957128,0.0155,-0.9663,0.0225
957192,0.0155,-0.9663,0.0223
957348,0.0154,-0.9663,0.0223
957378,0.0154,-0.9662,0.0223
957400,0.0154,-0.9662,0.0225
957425,0.0154,-0.9662,0.0225
957447,0.0154,-0.9662,0.0225
957469,0.0154,-0.9662,0.0226
957486,0.0154,-0.9662,0.0226
957632,0.0156,-0.9662,0.0231
957667,0.0157,-0.9662,0.0231
957690,0.0157,-0.9662,0.0231
957707,0.0156,-0.9662,0.0231
957729,0.0156,-0.9663,0.0231
957751,0.0156,-0.9663,0.0231
957768,0.0156,-0.9663,0.0229
957791,0.0155,-0.9663,0.0229
958064,0.0150,-0.9658,0.0233
958097,0.0150,-0.9658,0.0236
958118,0.0150,-0.9657,0.0236
958135,0.0150,-0.9657,0.0237
958158,0.0150,-0.9657,0.0238
958180,0.0150,-0.9657,0.0238
958205,0.0151,-0.9657,0.0239
958227,0.0151,-0.9657,0.0239
958249,0.0151,-0.9658,0.0239
958266,0.0151,-0.9658,0.0240
958284,0.0151,-0.9659,0.0240
958307,0.0151,-0.9661,0.0240
958372,0.0150,-0.9663,0.0240
958389,0.0150,-0.9664,0.0240
958411,0.0150,-0.9664,0.0242
958796,0.0153,-0.9663,0.0245
958858,0.0153,-0.9663,0.0247
958876,0.0153,-0.9663,0.0248
958896,0.0153,-0.9663,0.0248
958916,0.0153,-0.9663,0.0249
958940,0.0153,-0.9662,0.0250
958962,0.0153,-0.9662,0.0251
958984,0.0153,-0.9662,0.0251
959001,0.0153,-0.9662,0.0253
959018,0.0154,-0.9662,0.0254
959041,0.0154,-0.9662,0.0255
959079,0.0154,-0.9662,0.0256
959101,0.0154,-0.9662,0.0258
959397,0.0155,-0.9661,0.0273
959459,0.0155,-0.9653,0.0281
959565,0.0153,-0.9620,0.0292
959587,0.0149,-0.9620,0.0287
959612,0.0138,-0.9626,0.0269
959657,0.0122,-0.9647,0.0221
959679,0.0117,-0.9655,0.0200
959703,0.0114,-0.9662,0.0179
959726,0.0109,-0.9675,0.0137
959748,0.0106,-0.9681,0.0115
960025,0.0118,-0.9678,-0.0010
960060,0.0117,-0.9674,0.0001
960083,0.0117,-0.9672,0.0007
960100,0.0117,-0.9670,0.0013
960122,0.0116,-0.9669,0.0018
960144,0.0115,-0.9668,0.0028
960166,0.0114,-0.9668,0.0033
960188,0.0112,-0.9668,0.0037
960211,0.0109,-0.9668,0.0043
960228,0.0107,-0.9669,0.0044
960245,0.0106,-0.9669,0.0046
960267,0.0105,-0.9670,0.0046
960312,0.0104,-0.9673,0.0048
960334,0.0104,-0.9673,0.0048
960359,0.0104,-0.9674,0.0048
960763,0.0149,-0.9642,0.0031
960782,0.0149,-0.9640,0.0029
960804,0.0149,-0.9637,0.0028
960825,0.0143,-0.9637,0.0023
960893,0.0125,-0.9652,0.0006
960912,0.0122,-0.9658,0.0001
960933,0.0121,-0.9664,-0.0002
960955,0.0122,-0.9672,-0.0006
960975,0.0128,-0.9685,-0.0009
960997,0.0134,-0.9691,-0.0007
961019,0.0142,-0.9696,-0.0005
961049,0.0160,-0.9701,0.0007
961373,0.0387,-0.9639,0.0134
961442,0.0415,-0.9642,0.0122
961459,0.0419,-0.9644,0.0118
961481,0.0421,-0.9645,0.0116
961503,0.0424,-0.9647,0.0112
961520,0.0425,-0.9648,0.0109
961543,0.0425,-0.9651,0.0101
961565,0.0425,-0.9653,0.0099
961584,0.0425,-0.9655,0.0096
961606,0.0424,-0.9656,0.0093
961629,0.0422,-0.9658,0.0089
961659,0.0419,-0.9659,0.0087
961678,0.0417,-0.9659,0.0085
961989,0.0409,-0.9646,0.0087
962052,0.0414,-0.9647,0.0085
962069,0.0414,-0.9648,0.0085
962092,0.0416,-0.9651,0.0084
962114,0.0417,-0.9651,0.0084
962131,0.0419,-0.9652,0.0083
962153,0.0420,-0.9653,0.0083
962175,0.0422,-0.9656,0.0082
962192,0.0424,-0.9656,0.0082
962209,0.0425,-0.9657,0.0082
962231,0.0425,-0.9658,0.0082
962268,0.0426,-0.9658,0.0083
962290,0.0427,-0.9659,0.0083
962581,0.0425,-0.9647,0.0105
962616,0.0425,-0.9647,0.0107
962719,0.0424,-0.9650,0.0109
962736,0.0424,-0.9650,0.0110
962759,0.0425,-0.9650,0.0110
962781,0.0425,-0.9650,0.0110
962800,0.0425,-0.9650,0.0110
962821,0.0425,-0.9650,0.0110
962840,0.0425,-0.9650,0.0110
962878,0.0426,-0.9650,0.0111
962908,0.0426,-0.9650,0.0112
962928,0.0427,-0.9650,0.0114
963163,0.0426,-0.9648,0.0118
963225,0.0426,-0.9650,0.0117
963278,0.0427,-0.9651,0.0116
963295,0.0428,-0.9651,0.0115
963317,0.0428,-0.9652,0.0115
963339,0.0430,-0.9652,0.0115
963356,0.0431,-0.9652,0.0114
963373,0.0431,-0.9652,0.0114
963396,0.0432,-0.9652,0.0114
963441,0.0433,-0.9651,0.0114
963464,0.0435,-0.9651,0.0112
963481,0.0435,-0.9650,0.0112
963503,0.0435,-0.9650,0.0112
963525,0.0435,-0.9650,0.0114
963543,0.0435,-0.9648,0.0114
963899,0.0433,-0.9650,0.0118
963963,0.0437,-0.9650,0.0121
963980,0.0438,-0.9650,0.0121
964002,0.0438,-0.9650,0.0122
964024,0.0439,-0.9650,0.0122
964041,0.0441,-0.9650,0.0122
964064,0.0442,-0.9650,0.0122
964086,0.0443,-0.9650,0.0122
964103,0.0444,-0.9650,0.0122
964120,0.0446,-0.9650,0.0122
964142,0.0446,-0.9650,0.0122
964181,0.0448,-0.9651,0.0121
964203,0.0449,-0.9651,0.0120
964460,0.0454,-0.9650,0.0117
964522,0.0455,-0.9648,0.0118
964641,0.0454,-0.9646,0.0122
964664,0.0454,-0.9646,0.0123
964681,0.0454,-0.9646,0.0123
964703,0.0454,-0.9646,0.0123
964733,0.0454,-0.9646,0.0123
964755,0.0454,-0.9646,0.0123
964778,0.0454,-0.9646,0.0125
964800,0.0454,-0.9646,0.0125
964821,0.0454,-0.9646,0.0125
964999,0.0454,-0.9646,0.0131
965036,0.0453,-0.9646,0.0132
965058,0.0453,-0.9646,0.0133
965075,0.0452,-0.9646,0.0133
965098,0.0450,-0.9646,0.0134
965120,0.0450,-0.9646,0.0134
965137,0.0450,-0.9646,0.0135
965353,0.0449,-0.9646,0.0145
965386,0.0450,-0.9646,0.0146
965408,0.0450,-0.9646,0.0148
965425,0.0450,-0.9646,0.0148
965532,0.0452,-0.9646,0.0150
965549,0.0452,-0.9646,0.0150
965567,0.0452,-0.9646,0.0150
965589,0.0452,-0.9646,0.0150
965656,0.0453,-0.9646,0.0150
965673,0.0453,-0.9646,0.0150
965696,0.0453,-0.9647,0.0149
965718,0.0453,-0.9647,0.0148
965735,0.0453,-0.9647,0.0148
965974,0.0450,-0.9650,0.0140
966007,0.0449,-0.9650,0.0140
966030,0.0449,-0.9648,0.0139
966047,0.0449,-0.9648,0.0139
966158,0.0448,-0.9646,0.0138
966179,0.0448,-0.9645,0.0137
966196,0.0449,-0.9645,0.0137
966218,0.0449,-0.9645,0.0137
966255,0.0449,-0.9644,0.0135
966277,0.0449,-0.9644,0.0135
966301,0.0450,-0.9642,0.0135
966322,0.0452,-0.9642,0.0135
966344,0.0452,-0.9642,0.0135
966599,0.0452,-0.9645,0.0139
966661,0.0450,-0.9645,0.0142
966682,0.0449,-0.9645,0.0143
966704,0.0449,-0.9645,0.0143
966726,0.0449,-0.9645,0.0144
966743,0.0449,-0.9644,0.0144
966766,0.0449,-0.9644,0.0145
966788,0.0449,-0.9644,0.0146
966813,0.0449,-0.9644,0.0146
966833,0.0449,-0.9644,0.0148
966852,0.0449,-0.9644,0.0148
966882,0.0449,-0.9644,0.0149
966902,0.0449,-0.9644,0.0149
966926,0.0450,-0.9644,0.0149
966949,0.0450,-0.9644,0.0150
967355,0.0458,-0.9645,0.0150
967393,0.0458,-0.9645,0.0149
967416,0.0459,-0.9646,0.0148
967433,0.0459,-0.9646,0.0146
967455,0.0459,-0.9646,0.0146
967477,0.0460,-0.9647,0.0145
967494,0.0460,-0.9647,0.0145
967517,0.0460,-0.9647,0.0144
967539,0.0460,-0.9647,0.0144
967556,0.0460,-0.9646,0.0144
967573,0.0459,-0.9646,0.0144
967596,0.0459,-0.9646,0.0145
967633,0.0459,-0.9645,0.0146
967655,0.0459,-0.9645,0.0146
967935,0.0459,-0.9642,0.0148
967997,0.0459,-0.9642,0.0146
968111,0.0459,-0.9644,0.0144
968134,0.0459,-0.9645,0.0144
968151,0.0459,-0.9645,0.0144
968173,0.0459,-0.9645,0.0144
968203,0.0459,-0.9646,0.0144
968225,0.0459,-0.9646,0.0144
968250,0.0459,-0.9647,0.0145
968272,0.0459,-0.9647,0.0145
968294,0.0459,-0.9647,0.0145
968547,0.0460,-0.9612,0.0140
968580,0.0455,-0.9612,0.0142
968602,0.0452,-0.9620,0.0143
968645,0.0437,-0.9655,0.0140
968668,0.0420,-0.9701,0.0129
968685,0.0410,-0.9725,0.0122
968707,0.0400,-0.9746,0.0115
968730,0.0376,-0.9774,0.0100
968747,0.0364,-0.9781,0.0094
968764,0.0352,-0.9783,0.0089
968786,0.0338,-0.9780,0.0085
968831,0.0302,-0.9746,0.0084
968850,0.0288,-0.9729,0.0087
968874,0.0276,-0.9711,0.0090
968894,0.0262,-0.9692,0.0095
968917,0.0238,-0.9653,0.0110
969271,0.0085,-0.9652,0.0033
969379,0.0116,-0.9702,-0.0006
969400,0.0132,-0.9709,-0.0006
969421,0.0139,-0.9712,-0.0004
969443,0.0148,-0.9713,-0.0001
969460,0.0155,-0.9712,0.0002
969485,0.0170,-0.9709,0.0010
969507,0.0176,-0.9707,0.0015
969537,0.0187,-0.9701,0.0023
969559,0.0190,-0.9698,0.0029
969840,0.0135,-0.9648,0.0138
969873,0.0128,-0.9642,0.0160
969959,0.0115,-0.9629,0.0223
969976,0.0114,-0.9626,0.0237
969999,0.0112,-0.9624,0.0261
970021,0.0114,-0.9623,0.0273
970038,0.0114,-0.9624,0.0283
970062,0.0116,-0.9625,0.0293
970085,0.0120,-0.9629,0.0309
970115,0.0127,-0.9635,0.0321
970137,0.0131,-0.9639,0.0325
970161,0.0134,-0.9641,0.0328
970184,0.0143,-0.9648,0.0332
970442,0.0183,-0.9659,0.0311
970504,0.0182,-0.9657,0.0302
970572,0.0177,-0.9656,0.0294
970594,0.0176,-0.9656,0.0293
970617,0.0172,-0.9656,0.0291
970639,0.0171,-0.9656,0.0291
970658,0.0170,-0.9656,0.0289
970681,0.0167,-0.9657,0.0288
970703,0.0167,-0.9657,0.0288
970733,0.0166,-0.9657,0.0288
970755,0.0165,-0.9658,0.0288
970779,0.0165,-0.9658,0.0288
970802,0.0165,-0.9658,0.0289
971069,0.0173,-0.9655,0.0308
971104,0.0173,-0.9653,0.0310
971216,0.0176,-0.9652,0.0312
971233,0.0176,-0.9652,0.0312
971255,0.0175,-0.9652,0.0312
971279,0.0175,-0.9652,0.0314
971309,0.0172,-0.9651,0.0314
971332,0.0171,-0.9651,0.0312
971356,0.0168,-0.9650,0.0311
971378,0.0167,-0.9650,0.0310
971396,0.0166,-0.9650,0.0309
971423,0.0164,-0.9650,0.0306
971610,0.0159,-0.9655,0.0292
971672,0.0159,-0.9657,0.0292
971689,0.0159,-0.9657,0.0292
971711,0.0159,-0.9657,0.0292
971894,0.0166,-0.9656,0.0297
971927,0.0166,-0.9657,0.0297
971949,0.0167,-0.9658,0.0295
971972,0.0167,-0.9659,0.0295
971994,0.0168,-0.9659,0.0295
972017,0.0168,-0.9661,0.0294
972034,0.0170,-0.9661,0.0294
972215,0.0179,-0.9661,0.0287
972250,0.0182,-0.9661,0.0286
972272,0.0183,-0.9659,0.0284
972289,0.0184,-0.9658,0.0284
972311,0.0186,-0.9658,0.0284
972334,0.0187,-0.9657,0.0284
972497,0.0188,-0.9661,0.0280
972527,0.0188,-0.9663,0.0278
972550,0.0188,-0.9664,0.0277
972567,0.0188,-0.9664,0.0276
972589,0.0188,-0.9666,0.0276
972611,0.0188,-0.9666,0.0275
972628,0.0188,-0.9666,0.0275
972776,0.0190,-0.9666,0.0270
972839,0.0190,-0.9663,0.0270
972861,0.0190,-0.9662,0.0270
972881,0.0190,-0.9662,0.0270
972901,0.0190,-0.9659,0.0271
972925,0.0190,-0.9659,0.0272
972947,0.0190,-0.9658,0.0272
973193,0.0189,-0.9653,0.0284
973225,0.0189,-0.9655,0.0287
973247,0.0190,-0.9655,0.0289
973282,0.0190,-0.9655,0.0293
973305,0.0190,-0.9655,0.0294
973331,0.0190,-0.9656,0.0295
973354,0.0190,-0.9655,0.0297
973376,0.0190,-0.9655,0.0297
973393,0.0190,-0.9655,0.0297
973413,0.0190,-0.9653,0.0298
973436,0.0189,-0.9653,0.0297
973483,0.0189,-0.9652,0.0295
973502,0.0189,-0.9652,0.0295
973526,0.0189,-0.9652,0.0294
973548,0.0190,-0.9652,0.0293
973954,0.0205,-0.9657,0.0294
974017,0.0204,-0.9657,0.0293
974039,0.0204,-0.9657,0.0293
974061,0.0204,-0.9657,0.0292
974084,0.0204,-0.9657,0.0289
974101,0.0204,-0.9657,0.0288
974123,0.0204,-0.9657,0.0288
974145,0.0205,-0.9656,0.0287
974164,0.0205,-0.9656,0.0286
974187,0.0205,-0.9656,0.0283
974209,0.0205,-0.9656,0.0283
974239,0.0206,-0.9655,0.0282
974261,0.0208,-0.9655,0.0282
974565,0.0221,-0.9661,0.0292
974640,0.0227,-0.9661,0.0291
974657,0.0229,-0.9659,0.0289
974679,0.0231,-0.9659,0.0288
974702,0.0232,-0.9659,0.0286
974719,0.0233,-0.9659,0.0284
974741,0.0233,-0.9659,0.0283
974763,0.0234,-0.9661,0.0281
974782,0.0234,-0.9661,0.0280
974805,0.0233,-0.9663,0.0276
974824,0.0233,-0.9664,0.0275
974854,0.0232,-0.9667,0.0272
975184,0.0223,-0.9655,0.0289
975247,0.0225,-0.9653,0.0293
975264,0.0226,-0.9653,0.0294
975287,0.0227,-0.9653,0.0295
975309,0.0227,-0.9653,0.0297
975326,0.0228,-0.9653,0.0297
975348,0.0229,-0.9653,0.0297
975371,0.0232,-0.9653,0.0298
975388,0.0232,-0.9653,0.0298
975405,0.0233,-0.9653,0.0298
975430,0.0234,-0.9653,0.0298
975470,0.0237,-0.9655,0.0298
975771,0.0240,-0.9656,0.0287
975806,0.0240,-0.9656,0.0286
975918,0.0242,-0.9657,0.0280
975935,0.0242,-0.9658,0.0280
975957,0.0242,-0.9658,0.0278
975981,0.0242,-0.9659,0.0277
976011,0.0242,-0.9661,0.0277
976033,0.0242,-0.9661,0.0276
976058,0.0242,-0.9661,0.0276
976080,0.0243,-0.9662,0.0276
976102,0.0243,-0.9661,0.0276
976310,0.0247,-0.9655,0.0288
976370,0.0248,-0.9655,0.0293
976387,0.0248,-0.9655,0.0294
976409,0.0248,-0.9655,0.0295
976542,0.0254,-0.9655,0.0308
976575,0.0256,-0.9655,0.0311
976595,0.0259,-0.9656,0.0314
976612,0.0260,-0.9656,0.0316
976634,0.0262,-0.9656,0.0317
976657,0.0269,-0.9657,0.0322
976674,0.0272,-0.9657,0.0325
976696,0.0276,-0.9657,0.0327
976719,0.0282,-0.9658,0.0332
976930,0.0312,-0.9646,0.0331
976963,0.0305,-0.9727,0.0323
976986,0.0294,-0.9805,0.0312
977003,0.0287,-0.9829,0.0306
977025,0.0282,-0.9843,0.0300
977157,0.0240,-0.9697,0.0225
977189,0.0228,-0.9642,0.0188
977211,0.0222,-0.9619,0.0168
977228,0.0216,-0.9597,0.0149
977250,0.0209,-0.9579,0.0129
977273,0.0194,-0.9554,0.0094
977290,0.0186,-0.9547,0.0079
977312,0.0178,-0.9543,0.0065
977549,0.0122,-0.9673,0.0018
977613,0.0131,-0.9688,0.0028
977703,0.0157,-0.9694,0.0021
977720,0.0162,-0.9695,0.0017
977742,0.0166,-0.9696,0.0013
977759,0.0170,-0.9697,0.0011
977796,0.0173,-0.9698,0.0006
977815,0.0172,-0.9698,0.0005
977839,0.0166,-0.9698,0.0005
977859,0.0161,-0.9697,0.0005
977880,0.0156,-0.9696,0.0005
977905,0.0143,-0.9694,0.0007
977927,0.0137,-0.9691,0.0007
978199,0.0092,-0.9670,0.0002
978234,0.0098,-0.9672,-0.0000
978355,0.0117,-0.9677,-0.0007
978372,0.0120,-0.9677,-0.0007
978394,0.0121,-0.9677,-0.0006
978418,0.0122,-0.9677,-0.0007
978448,0.0126,-0.9677,-0.0010
978471,0.0128,-0.9675,-0.0016
978495,0.0131,-0.9675,-0.0021
978517,0.0133,-0.9674,-0.0024
978540,0.0139,-0.9672,-0.0034
978728,0.0125,-0.9669,-0.0021
978788,0.0121,-0.9680,0.0009
978806,0.0122,-0.9683,0.0016
978825,0.0125,-0.9684,0.0023
978844,0.0127,-0.9684,0.0029
979055,0.0201,-0.9667,0.0059
979088,0.0209,-0.9663,0.0057
979110,0.0212,-0.9662,0.0056
979127,0.0215,-0.9659,0.0056
979149,0.0216,-0.9658,0.0055
979291,0.0199,-0.9644,0.0056
979326,0.0192,-0.9641,0.0059
979348,0.0188,-0.9641,0.0060
979365,0.0186,-0.9640,0.0062
979388,0.0178,-0.9637,0.0066
979410,0.0176,-0.9637,0.0068
979427,0.0175,-0.9636,0.0071
979449,0.0172,-0.9635,0.0073
979629,0.0170,-0.9635,0.0089
979677,0.0171,-0.9637,0.0089
979698,0.0172,-0.9637,0.0088
979721,0.0173,-0.9639,0.0087
979743,0.0175,-0.9639,0.0085
979760,0.0175,-0.9640,0.0085
979984,0.0184,-0.9644,0.0074
980046,0.0189,-0.9641,0.0074
980063,0.0190,-0.9640,0.0074
980154,0.0194,-0.9640,0.0076
980172,0.0194,-0.9640,0.0076
980196,0.0194,-0.9640,0.0074
980216,0.0194,-0.9641,0.0074
980246,0.0194,-0.9642,0.0073
980268,0.0193,-0.9642,0.0073
980293,0.0193,-0.9644,0.0072
980315,0.0193,-0.9644,0.0071
980337,0.0192,-0.9645,0.0071
980355,0.0192,-0.9646,0.0070
980377,0.0192,-0.9646,0.0068
980636,0.0199,-0.9644,0.0071
