timestamp,acc_x,acc_y,acc_z
3270728,0.0148,-0.9911,0.0221
3270851,0.0131,-0.9915,0.0223
3270861,0.0132,-0.9916,0.0229
3270876,0.0132,-0.9917,0.0233
3270892,0.0134,-0.9918,0.0239
3270908,0.0135,-0.9919,0.0247
3270925,0.0138,-0.9921,0.0251
3270943,0.0138,-0.9922,0.0256
3270958,0.0139,-0.9922,0.0258
3270974,0.0139,-0.9919,0.0256
3271012,0.0135,-0.9912,0.0248
3271028,0.0133,-0.9910,0.0242
3271065,0.0132,-0.9906,0.0229
3271075,0.0133,-0.9907,0.0225
3271091,0.0134,-0.9908,0.0223
3271106,0.0135,-0.9910,0.0223
3271122,0.0137,-0.9912,0.0226
3271140,0.0140,-0.9915,0.0234
3271150,0.0142,-0.9916,0.0238
3271166,0.0145,-0.9917,0.0245
3271182,0.0148,-0.9919,0.0253
3271198,0.0150,-0.9921,0.0259
3271225,0.0151,-0.9921,0.0262
3271244,0.0150,-0.9919,0.0258
3271260,0.0149,-0.9918,0.0250
3271270,0.0148,-0.9917,0.0244
3271286,0.0146,-0.9915,0.0233
3271302,0.0145,-0.9912,0.0222
3271318,0.0143,-0.9911,0.0214
3271327,0.0142,-0.9911,0.0209
3271337,0.0139,-0.9911,0.0203
3271369,0.0138,-0.9913,0.0195
3271379,0.0138,-0.9915,0.0192
3271395,0.0139,-0.9915,0.0188
3271422,0.0138,-0.9916,0.0183
3271438,0.0137,-0.9917,0.0182
3271452,0.0137,-0.9918,0.0181
3271470,0.0139,-0.9918,0.0181
3271486,0.0142,-0.9918,0.0181
3271500,0.0143,-0.9918,0.0182
3271516,0.0145,-0.9917,0.0183
3271534,0.0148,-0.9916,0.0187
3271550,0.0148,-0.9916,0.0188
3271566,0.0148,-0.9915,0.0189
3271584,0.0150,-0.9913,0.0193
3271618,0.0153,-0.9912,0.0197
3271634,0.0153,-0.9912,0.0198
3271677,0.0155,-0.9917,0.0205
3271687,0.0156,-0.9917,0.0205
3271703,0.0157,-0.9918,0.0206
3271719,0.0159,-0.9918,0.0205
3271735,0.0160,-0.9917,0.0203
3271750,0.0160,-0.9916,0.0200
3271760,0.0160,-0.9916,0.0198
3271776,0.0159,-0.9915,0.0194
3271787,0.0159,-0.9915,0.0192
3271803,0.0157,-0.9913,0.0187
3271856,0.0153,-0.9916,0.0182
3271872,0.0154,-0.9916,0.0181
3271882,0.0155,-0.9915,0.0181
3271898,0.0157,-0.9915,0.0178
3271914,0.0160,-0.9913,0.0177
3271930,0.0161,-0.9912,0.0176
3271948,0.0162,-0.9911,0.0175
3271981,0.0167,-0.9908,0.0176
3271992,0.0168,-0.9908,0.0177
3272061,0.0170,-0.9917,0.0198
3272078,0.0168,-0.9918,0.0201
3272094,0.0167,-0.9919,0.0201
3272110,0.0166,-0.9918,0.0199
3272126,0.0166,-0.9917,0.0193
3272136,0.0166,-0.9916,0.0190
3272152,0.0165,-0.9913,0.0183
3272168,0.0165,-0.9912,0.0178
3272184,0.0164,-0.9910,0.0176
3272194,0.0164,-0.9910,0.0176
3272221,0.0165,-0.9910,0.0179
3272237,0.0165,-0.9910,0.0184
3272251,0.0166,-0.9912,0.0190
3272284,0.0165,-0.9916,0.0205
3272294,0.0164,-0.9917,0.0208
3272310,0.0164,-0.9919,0.0212
3272326,0.0164,-0.9919,0.0216
3272342,0.0165,-0.9919,0.0216
3272360,0.0166,-0.9918,0.0214
3272376,0.0166,-0.9917,0.0210
3272392,0.0166,-0.9917,0.0205
3272402,0.0166,-0.9917,0.0203
3272418,0.0165,-0.9918,0.0199
3272444,0.0165,-0.9921,0.0197
3272459,0.0165,-0.9922,0.0197
3272475,0.0167,-0.9922,0.0198
3272492,0.0170,-0.9922,0.0198
3272507,0.0171,-0.9919,0.0194
3272523,0.0172,-0.9916,0.0189
3272539,0.0175,-0.9910,0.0182
3272557,0.0178,-0.9901,0.0173
3272592,0.0184,-0.9886,0.0165
3272610,0.0182,-0.9888,0.0173
3272636,0.0168,-0.9902,0.0194
3272645,0.0164,-0.9907,0.0203
3272661,0.0154,-0.9917,0.0217
3272677,0.0145,-0.9924,0.0231
3272688,0.0142,-0.9927,0.0236
3272704,0.0135,-0.9929,0.0242
3272720,0.0131,-0.9926,0.0242
3272736,0.0129,-0.9913,0.0236
3272754,0.0131,-0.9896,0.0227
3272769,0.0132,-0.9879,0.0228
3272785,0.0133,-0.9867,0.0247
3272801,0.0132,-0.9866,0.0286
3272812,0.0131,-0.9867,0.0310
3272856,0.0118,-0.9890,0.0488
3272896,0.0104,-0.9919,0.0582
3272906,0.0098,-0.9928,0.0610
3272921,0.0095,-0.9930,0.0621
3272937,0.0092,-0.9933,0.0634
3272953,0.0090,-0.9932,0.0635
3272970,0.0093,-0.9928,0.0631
3272986,0.0094,-0.9922,0.0624
3273002,0.0095,-0.9916,0.0616
3273013,0.0096,-0.9908,0.0610
3273028,0.0098,-0.9905,0.0608
3273067,0.0101,-0.9890,0.0608
3273076,0.0103,-0.9889,0.0608
3273092,0.0101,-0.9886,0.0608
3273106,0.0101,-0.9885,0.0607
3273122,0.0103,-0.9885,0.0605
3273138,0.0103,-0.9886,0.0603
3273154,0.0103,-0.9888,0.0601
3273164,0.0103,-0.9889,0.0601
3273204,0.0099,-0.9893,0.0598
3273214,0.0099,-0.9893,0.0598
3273248,0.0096,-0.9895,0.0590
3273264,0.0096,-0.9895,0.0585
3273277,0.0096,-0.9895,0.0580
3273295,0.0098,-0.9895,0.0575
3273311,0.0099,-0.9895,0.0574
3273327,0.0099,-0.9894,0.0573
3273343,0.0099,-0.9893,0.0575
3273361,0.0099,-0.9891,0.0577
3273377,0.0098,-0.9891,0.0583
3273393,0.0098,-0.9890,0.0590
3273409,0.0098,-0.9890,0.0597
3273419,0.0098,-0.9890,0.0601
3273446,0.0096,-0.9890,0.0612
3273460,0.0096,-0.9890,0.0618
3273475,0.0095,-0.9891,0.0620
3273510,0.0095,-0.9891,0.0619
3273520,0.0095,-0.9891,0.0618
3273529,0.0095,-0.9891,0.0615
3273545,0.0095,-0.9893,0.0610
3273561,0.0095,-0.9893,0.0604
3273577,0.0096,-0.9893,0.0599
3273587,0.0096,-0.9893,0.0594
3273603,0.0098,-0.9894,0.0592
3273622,0.0099,-0.9894,0.0587
3273638,0.0099,-0.9895,0.0586
3273664,0.0096,-0.9895,0.0590
3273680,0.0095,-0.9895,0.0593
3273696,0.0096,-0.9895,0.0598
3273714,0.0098,-0.9895,0.0602
3273730,0.0100,-0.9895,0.0607
3273746,0.0100,-0.9895,0.0612
3273762,0.0100,-0.9895,0.0616
3273780,0.0099,-0.9895,0.0621
3273818,0.0100,-0.9894,0.0626
3273829,0.0100,-0.9894,0.0625
3273880,0.0101,-0.9893,0.0608
3273896,0.0103,-0.9893,0.0602
3273914,0.0103,-0.9893,0.0597
3273930,0.0101,-0.9891,0.0594
3273946,0.0101,-0.9891,0.0594
3273962,0.0101,-0.9891,0.0596
3273980,0.0100,-0.9890,0.0601
3273996,0.0099,-0.9890,0.0607
3274012,0.0098,-0.9890,0.0614
3274030,0.0098,-0.9890,0.0624
3274088,0.0098,-0.9888,0.0663
3274120,0.0100,-0.9885,0.0686
3274133,0.0099,-0.9885,0.0693
3274142,0.0099,-0.9885,0.0695
3274158,0.0096,-0.9886,0.0693
3274174,0.0095,-0.9886,0.0685
3274195,0.0094,-0.9889,0.0653
3274211,0.0094,-0.9890,0.0640
3274227,0.0095,-0.9893,0.0607
3274237,0.0096,-0.9895,0.0573
3274246,0.0098,-0.9896,0.0557
3274273,0.0099,-0.9900,0.0516
3274289,0.0099,-0.9901,0.0503
3274304,0.0099,-0.9902,0.0500
3274322,0.0099,-0.9902,0.0511
3274338,0.0098,-0.9901,0.0535
3274354,0.0095,-0.9899,0.0566
3274370,0.0094,-0.9896,0.0603
3274388,0.0092,-0.9893,0.0641
3274431,0.0089,-0.9886,0.0710
3274441,0.0089,-0.9885,0.0715
3274467,0.0092,-0.9885,0.0710
3274482,0.0092,-0.9885,0.0703
3274497,0.0092,-0.9888,0.0681
3274515,0.0092,-0.9889,0.0636
3274530,0.0094,-0.9893,0.0620
3274546,0.0096,-0.9894,0.0591
3274562,0.0099,-0.9896,0.0566
3274580,0.0100,-0.9900,0.0553
3274596,0.0100,-0.9901,0.0551
3274612,0.0098,-0.9901,0.0563
3274628,0.0093,-0.9901,0.0587
3274664,0.0084,-0.9893,0.0675
3274679,0.0083,-0.9890,0.0691
3274695,0.0081,-0.9888,0.0718
3274736,0.0084,-0.9884,0.0721
3274752,0.0088,-0.9884,0.0695
3274768,0.0090,-0.9884,0.0657
3274778,0.0093,-0.9884,0.0323
3274794,0.0096,-0.9885,0.0594
3274808,0.0100,-0.9886,0.0555
3274824,0.0103,-0.9888,0.0524
3274842,0.0103,-0.9889,0.0502
3274853,0.0101,-0.9891,0.0492
3274868,0.0101,-0.9893,0.0491
3274884,0.0100,-0.9894,0.0498
3274900,0.0099,-0.9895,0.0516
3274942,0.0093,-0.9895,0.0591
3274958,0.0092,-0.9894,0.0625
3274976,0.0089,-0.9891,0.0671
3274991,0.0089,-0.9890,0.0684
3275007,0.0090,-0.9888,0.0704
3275038,0.0093,-0.9884,0.0721
3275047,0.0093,-0.9883,0.0720
3275058,0.0092,-0.9883,0.0712
3275073,0.0093,-0.9883,0.0704
3275089,0.0094,-0.9883,0.0684
3275105,0.0096,-0.9884,0.0660
3275143,0.0103,-0.9889,0.0604
3275159,0.0105,-0.9890,0.0591
3275177,0.0106,-0.9891,0.0585
3275193,0.0106,-0.9893,0.0585
3275209,0.0106,-0.9894,0.0592
3275225,0.0104,-0.9894,0.0604
3275245,0.0101,-0.9894,0.0619
3275263,0.0099,-0.9893,0.0638
3275279,0.0098,-0.9893,0.0645
3275295,0.0096,-0.9891,0.0652
3275327,0.0094,-0.9890,0.0656
3275368,0.0093,-0.9889,0.0638
3275378,0.0093,-0.9889,0.0629
3275394,0.0092,-0.9889,0.0624
3275410,0.0092,-0.9890,0.0616
3275426,0.0090,-0.9891,0.0613
3275442,0.0089,-0.9893,0.0614
3275459,0.0088,-0.9894,0.0619
3275469,0.0088,-0.9894,0.0626
3275482,0.0089,-0.9893,0.0630
3275499,0.0090,-0.9893,0.0638
3275525,0.0095,-0.9890,0.0646
3275541,0.0099,-0.9888,0.0646
3275557,0.0103,-0.9888,0.0641
3275573,0.0105,-0.9886,0.0632
3275590,0.0105,-0.9888,0.0620
3275606,0.0105,-0.9889,0.0607
3275622,0.0105,-0.9890,0.0594
3275666,0.0099,-0.9895,0.0581
3275676,0.0098,-0.9895,0.0582
3275692,0.0095,-0.9896,0.0591
3275718,0.0092,-0.9896,0.0610
3275734,0.0088,-0.9896,0.0627
3275750,0.0085,-0.9895,0.0646
3275768,0.0084,-0.9894,0.0664
3275784,0.0084,-0.9893,0.0680
3275800,0.0084,-0.9891,0.0691
3275814,0.0084,-0.9890,0.0698
3275832,0.0085,-0.9889,0.0699
3275848,0.0088,-0.9889,0.0695
3275864,0.0089,-0.9889,0.0684
3275883,0.0090,-0.9890,0.0669
3275925,0.0094,-0.9893,0.0626
3275964,0.0096,-0.9894,0.0593
3275974,0.0098,-0.9894,0.0590
3275990,0.0098,-0.9894,0.0585
3276006,0.0096,-0.9894,0.0585
3276022,0.0096,-0.9894,0.0588
3276040,0.0095,-0.9894,0.0594
3276056,0.0094,-0.9894,0.0603
3276070,0.0093,-0.9894,0.0612
3276099,0.0092,-0.9893,0.0627
3276140,0.0089,-0.9893,0.0648
3276156,0.0089,-0.9891,0.0654
3276174,0.0088,-0.9891,0.0659
3276190,0.0088,-0.9891,0.0662
3276206,0.0088,-0.9891,0.0663
3276222,0.0089,-0.9890,0.0663
3276240,0.0089,-0.9890,0.0663
3276271,0.0093,-0.9889,0.0658
3276287,0.0095,-0.9889,0.0654
3276297,0.0096,-0.9888,0.0652
3276325,0.0099,-0.9888,0.0643
3276339,0.0100,-0.9889,0.0638
3276355,0.0100,-0.9889,0.0635
3276373,0.0100,-0.9890,0.0627
3276389,0.0099,-0.9891,0.0623
3276404,0.0099,-0.9891,0.0621
3276420,0.0098,-0.9893,0.0619
3276438,0.0096,-0.9894,0.0618
3276452,0.0095,-0.9894,0.0618
3276468,0.0094,-0.9894,0.0620
3276484,0.0094,-0.9894,0.0623
3276519,0.0093,-0.9894,0.0631
3276535,0.0092,-0.9895,0.0636
3276577,0.0089,-0.9895,0.0642
3276586,0.0089,-0.9895,0.0645
3276601,0.0090,-0.9894,0.0645
3276617,0.0092,-0.9894,0.0647
3276633,0.0093,-0.9893,0.0649
3276651,0.0093,-0.9891,0.0653
3276667,0.0094,-0.9890,0.0653
3276683,0.0094,-0.9889,0.0652
3276699,0.0094,-0.9889,0.0647
3276709,0.0094,-0.9889,0.0640
3276735,0.0094,-0.9890,0.0627
3276751,0.0094,-0.9890,0.0621
3276767,0.0094,-0.9891,0.0616
3276785,0.0093,-0.9891,0.0616
3276801,0.0092,-0.9893,0.0620
3276817,0.0090,-0.9891,0.0627
3276833,0.0089,-0.9891,0.0637
3276848,0.0089,-0.9890,0.0647
3276882,0.0088,-0.9889,0.0660
3276897,0.0088,-0.9889,0.0662
3276916,0.0089,-0.9890,0.0662
3276958,0.0090,-0.9891,0.0648
3276974,0.0090,-0.9893,0.0643
3276992,0.0092,-0.9894,0.0638
3277008,0.0092,-0.9894,0.0635
3277024,0.0092,-0.9894,0.0634
3277040,0.0093,-0.9894,0.0635
3277058,0.0093,-0.9894,0.0636
3277074,0.0093,-0.9894,0.0638
3277090,0.0093,-0.9894,0.0641
3277104,0.0093,-0.9894,0.0645
3277165,0.0095,-0.9891,0.0651
3277196,0.0096,-0.9891,0.0642
3277206,0.0098,-0.9891,0.0637
3277222,0.0098,-0.9891,0.0629
3277238,0.0099,-0.9893,0.0619
3277254,0.0099,-0.9894,0.0609
3277272,0.0100,-0.9894,0.0601
3277288,0.0099,-0.9895,0.0596
3277304,0.0099,-0.9895,0.0594
3277320,0.0096,-0.9896,0.0597
3277330,0.0096,-0.9896,0.0599
3277358,0.0093,-0.9895,0.0619
3277372,0.0092,-0.9894,0.0624
3277388,0.0090,-0.9893,0.0637
3277406,0.0089,-0.9893,0.0648
3277422,0.0088,-0.9891,0.0658
3277438,0.0087,-0.9891,0.0664
3277452,0.0085,-0.9891,0.0668
3277470,0.0085,-0.9891,0.0669
3277505,0.0085,-0.9893,0.0664
3277521,0.0085,-0.9893,0.0663
3277531,0.0087,-0.9893,0.0662
3277557,0.0088,-0.9893,0.0659
3277573,0.0089,-0.9891,0.0659
3277589,0.0089,-0.9891,0.0658
3277607,0.0090,-0.9890,0.0656
3277621,0.0090,-0.9890,0.0653
3277638,0.0092,-0.9890,0.0649
3277654,0.0093,-0.9889,0.0645
3277672,0.0094,-0.9889,0.0641
3277688,0.0094,-0.9889,0.0637
3277704,0.0094,-0.9890,0.0635
3277720,0.0093,-0.9890,0.0634
3277756,0.0092,-0.9890,0.0635
3277772,0.0092,-0.9890,0.0636
3277803,0.0090,-0.9890,0.0638
3277813,0.0090,-0.9890,0.0638
3277829,0.0090,-0.9890,0.0640
3277845,0.0090,-0.9889,0.0641
3277861,0.0090,-0.9889,0.0641
3277876,0.0090,-0.9889,0.0641
3277886,0.0090,-0.9889,0.0640
3277902,0.0090,-0.9889,0.0638
3277918,0.0092,-0.9889,0.0636
3277934,0.0092,-0.9889,0.0634
3277945,0.0092,-0.9889,0.0632
3277987,0.0093,-0.9890,0.0627
3278003,0.0093,-0.9891,0.0627
3278021,0.0093,-0.9893,0.0629
3278037,0.0093,-0.9893,0.0632
3278053,0.0093,-0.9893,0.0637
3278069,0.0092,-0.9893,0.0643
3278123,0.0089,-0.9890,0.0659
3278132,0.0089,-0.9890,0.0660
3278182,0.0092,-0.9890,0.0656
3278198,0.0092,-0.9890,0.0653
3278216,0.0093,-0.9890,0.0649
3278232,0.0093,-0.9891,0.0646
3278248,0.0093,-0.9893,0.0645
3278264,0.0093,-0.9893,0.0642
3278282,0.0093,-0.9894,0.0642
3278298,0.0094,-0.9894,0.0642
3278314,0.0094,-0.9894,0.0643
3278330,0.0095,-0.9894,0.0645
3278348,0.0095,-0.9893,0.0646
3278358,0.0096,-0.9893,0.0647
3278374,0.0096,-0.9891,0.0648
3278388,0.0098,-0.9890,0.0649
3278419,0.0099,-0.9889,0.0648
3278447,0.0099,-0.9889,0.0645
3278461,0.0099,-0.9889,0.0640
3278478,0.0098,-0.9889,0.0636
3278495,0.0098,-0.9890,0.0631
3278511,0.0096,-0.9890,0.0629
3278527,0.0095,-0.9891,0.0627
3278543,0.0094,-0.9891,0.0627
3278579,0.0092,-0.9893,0.0631
3278595,0.0090,-0.9893,0.0635
3278611,0.0089,-0.9891,0.0638
3278629,0.0089,-0.9891,0.0642
3278643,0.0089,-0.9890,0.0647
3278660,0.0088,-0.9889,0.0651
3278676,0.0088,-0.9888,0.0654
3278694,0.0088,-0.9888,0.0656
3278725,0.0090,-0.9888,0.0654
3278741,0.0092,-0.9888,0.0652
3278759,0.0094,-0.9889,0.0649
3278769,0.0095,-0.9889,0.0648
3278785,0.0095,-0.9890,0.0645
3278801,0.0095,-0.9890,0.0642
3278817,0.0095,-0.9891,0.0641
3278843,0.0095,-0.9890,0.0640
3278859,0.0096,-0.9890,0.0641
3278875,0.0096,-0.9889,0.0642
3278888,0.0095,-0.9888,0.0643
3278898,0.0094,-0.9888,0.0643
3278914,0.0093,-0.9888,0.0643
3278930,0.0092,-0.9888,0.0643
3278946,0.0092,-0.9888,0.0645
3278964,0.0092,-0.9888,0.0646
3278975,0.0090,-0.9886,0.0647
3278991,0.0090,-0.9886,0.0649
3279033,0.0090,-0.9888,0.0652
3279075,0.0092,-0.9890,0.0652
3279090,0.0092,-0.9891,0.0651
3279108,0.0093,-0.9893,0.0648
3279123,0.0093,-0.9893,0.0647
3279139,0.0094,-0.9893,0.0646
3279155,0.0094,-0.9894,0.0645
3279172,0.0093,-0.9894,0.0643
3279183,0.0093,-0.9894,0.0642
3279199,0.0094,-0.9894,0.0641
3279215,0.0094,-0.9894,0.0641
3279230,0.0094,-0.9894,0.0641
3279268,0.0094,-0.9894,0.0642
3279284,0.0094,-0.9894,0.0643
3279302,0.0094,-0.9894,0.0645
3279333,0.0093,-0.9893,0.0646
3279349,0.0093,-0.9891,0.0646
3279367,0.0093,-0.9891,0.0646
3279385,0.0094,-0.9891,0.0646
3279400,0.0094,-0.9891,0.0647
3279416,0.0093,-0.9893,0.0649
3279453,0.0092,-0.9894,0.0654
3279468,0.0092,-0.9894,0.0654
3279484,0.0092,-0.9894,0.0656
3279500,0.0093,-0.9894,0.0656
3279517,0.0094,-0.9893,0.0656
3279533,0.0094,-0.9893,0.0656
3279549,0.0094,-0.9893,0.0656
3279567,0.0094,-0.9891,0.0656
3279583,0.0094,-0.9891,0.0654
3279593,0.0093,-0.9891,0.0653
3279609,0.0093,-0.9893,0.0651
3279640,0.0093,-0.9893,0.0648
3279666,0.0093,-0.9893,0.0646
3279681,0.0093,-0.9893,0.0646
3279697,0.0093,-0.9894,0.0647
3279715,0.0093,-0.9894,0.0648
3279731,0.0093,-0.9894,0.0648
3279747,0.0093,-0.9894,0.0649
3279763,0.0093,-0.9894,0.0649
3279781,0.0093,-0.9894,0.0651
3279799,0.0093,-0.9894,0.0651
3279815,0.0093,-0.9894,0.0649
3279831,0.0092,-0.9894,0.0649
3279864,0.0093,-0.9893,0.0648
3279880,0.0093,-0.9891,0.0648
3279895,0.0094,-0.9891,0.0648
3279909,0.0094,-0.9890,0.0648
3279919,0.0095,-0.9890,0.0648
3279960,0.0095,-0.9889,0.0648
3279976,0.0095,-0.9888,0.0648
3279986,0.0095,-0.9888,0.0647
3280005,0.0095,-0.9888,0.0646
3280021,0.0096,-0.9888,0.0646
3280037,0.0096,-0.9888,0.0645
3280079,0.0095,-0.9889,0.0645
3280095,0.0095,-0.9889,0.0645
3280113,0.0094,-0.9890,0.0643
3280139,0.0094,-0.9891,0.0643
3280148,0.0093,-0.9891,0.0643
3280164,0.0093,-0.9891,0.0643
3280177,0.0092,-0.9893,0.0645
3280191,0.0092,-0.9893,0.0646
3280209,0.0092,-0.9893,0.0647
3280224,0.0093,-0.9893,0.0647
3280285,0.0095,-0.9894,0.0652
3280303,0.0096,-0.9894,0.0653
3280319,0.0098,-0.9894,0.0654
3280335,0.0098,-0.9894,0.0653
3280351,0.0098,-0.9894,0.0653
3280369,0.0098,-0.9894,0.0652
3280385,0.0099,-0.9895,0.0653
3280401,0.0100,-0.9894,0.0656
3280418,0.0100,-0.9894,0.0660
3280451,0.0100,-0.9891,0.0673
3280465,0.0099,-0.9890,0.0679
3280480,0.0098,-0.9889,0.0682
3280497,0.0096,-0.9888,0.0684
3280514,0.0095,-0.9888,0.0684
3280530,0.0094,-0.9888,0.0682
3280564,0.0095,-0.9888,0.0676
3280577,0.0095,-0.9888,0.0675
3280593,0.0095,-0.9888,0.0668
3280609,0.0095,-0.9889,0.0658
3280619,0.0095,-0.9890,0.0647
3280652,0.0094,-0.9893,0.0619
3280667,0.0094,-0.9893,0.0612
3280683,0.0095,-0.9894,0.0598
3280699,0.0096,-0.9895,0.0585
3280716,0.0096,-0.9895,0.0575
3280732,0.0098,-0.9895,0.0569
3280748,0.0098,-0.9895,0.0570
3280766,0.0098,-0.9895,0.0580
3280782,0.0096,-0.9894,0.0596
3280798,0.0095,-0.9893,0.0619
3280814,0.0094,-0.9890,0.0646
3280824,0.0093,-0.9889,0.0675
3280850,0.0090,-0.9886,0.0714
3280881,0.0087,-0.9885,0.0739
3280899,0.0085,-0.9885,0.0742
3280914,0.0085,-0.9885,0.0739
3280927,0.0085,-0.9886,0.0724
3280943,0.0087,-0.9888,0.0701
3280961,0.0089,-0.9889,0.0671
3280977,0.0092,-0.9890,0.0641
3280993,0.0095,-0.9893,0.0610
3281009,0.0098,-0.9894,0.0585
3281062,0.0103,-0.9896,0.0564
3281078,0.0103,-0.9895,0.0571
3281088,0.0101,-0.9895,0.0592
3281103,0.0100,-0.9894,0.0604
3281119,0.0099,-0.9893,0.0631
3281135,0.0096,-0.9891,0.0657
3281153,0.0096,-0.9889,0.0687
3281187,0.0095,-0.9888,0.0707
3281203,0.0092,-0.9889,0.0703
3281219,0.0090,-0.9889,0.0691
3281229,0.0092,-0.9889,0.0682
3281245,0.0095,-0.9890,0.0660
3281261,0.0099,-0.9891,0.0637
3281277,0.0100,-0.9893,0.0614
3281315,0.0103,-0.9895,0.0582
3281331,0.0101,-0.9896,0.0577
3281349,0.0099,-0.9897,0.0582
3281365,0.0094,-0.9897,0.0593
3281381,0.0089,-0.9897,0.0613
3281397,0.0085,-0.9897,0.0635
3281415,0.0083,-0.9896,0.0660
3281429,0.0082,-0.9894,0.0686
3281440,0.0083,-0.9893,0.0698
3281454,0.0083,-0.9890,0.0719
3281486,0.0085,-0.9885,0.0745
3281511,0.0089,-0.9883,0.0743
3281527,0.0090,-0.9883,0.0732
3281543,0.0093,-0.9883,0.0714
3281563,0.0094,-0.9884,0.0690
3281579,0.0095,-0.9886,0.0664
3281595,0.0096,-0.9888,0.0637
3281611,0.0096,-0.9890,0.0613
3281629,0.0096,-0.9893,0.0586
3281647,0.0095,-0.9895,0.0575
3281663,0.0095,-0.9895,0.0573
3281678,0.0094,-0.9896,0.0574
3281711,0.0093,-0.9895,0.0596
3281726,0.0092,-0.9895,0.0613
3281742,0.0092,-0.9894,0.0631
3281760,0.0090,-0.9893,0.0649
3281791,0.0090,-0.9890,0.0677
3281807,0.0089,-0.9890,0.0685
3281825,0.0089,-0.9889,0.0687
3281841,0.0090,-0.9889,0.0686
3281851,0.0090,-0.9889,0.0680
3281867,0.0090,-0.9889,0.0676
3281883,0.0090,-0.9889,0.0669
3281909,0.0092,-0.9890,0.0652
3281924,0.0093,-0.9890,0.0649
3281938,0.0093,-0.9891,0.0643
3281956,0.0093,-0.9891,0.0641
3281972,0.0094,-0.9891,0.0640
3281988,0.0094,-0.9891,0.0640
3282004,0.0095,-0.9891,0.0642
3282022,0.0095,-0.9891,0.0645
3282038,0.0095,-0.9891,0.0648
3282057,0.0095,-0.9891,0.0652
3282098,0.0095,-0.9891,0.0656
3282150,0.0096,-0.9891,0.0657
3282159,0.0096,-0.9891,0.0657
3282172,0.0098,-0.9891,0.0656
3282187,0.0098,-0.9891,0.0656
3282203,0.0098,-0.9891,0.0654
3282218,0.0099,-0.9893,0.0654
3282236,0.0099,-0.9893,0.0653
3282252,0.0100,-0.9893,0.0653
3282263,0.0101,-0.9893,0.0653
3282279,0.0101,-0.9891,0.0653
3282294,0.0101,-0.9891,0.0653
3282343,0.0100,-0.9891,0.0652
3282359,0.0099,-0.9891,0.0652
3282369,0.0099,-0.9890,0.0652
3282400,0.0096,-0.9890,0.0651
3282416,0.0096,-0.9890,0.0649
3282434,0.0095,-0.9890,0.0649
3282448,0.0094,-0.9890,0.0648
3282466,0.0093,-0.9890,0.0648
3282481,0.0093,-0.9891,0.0648
3282514,0.0092,-0.9891,0.0648
3282529,0.0093,-0.9893,0.0648
3282545,0.0093,-0.9893,0.0649
3282563,0.0093,-0.9891,0.0649
3282579,0.0093,-0.9891,0.0649
3282595,0.0093,-0.9891,0.0651
3282611,0.0093,-0.9891,0.0651
3282631,0.0093,-0.9891,0.0651
3282647,0.0093,-0.9891,0.0651
3282663,0.0094,-0.9891,0.0652
3282673,0.0094,-0.9890,0.0652
3282704,0.0094,-0.9890,0.0652
3282730,0.0093,-0.9890,0.0652
3282745,0.0093,-0.9890,0.0652
3282761,0.0092,-0.9890,0.0652
3282779,0.0092,-0.9889,0.0651
3282795,0.0092,-0.9889,0.0651
3282811,0.0092,-0.9889,0.0651
3282827,0.0092,-0.9889,0.0649
3282845,0.0092,-0.9889,0.0649
3282861,0.0092,-0.9889,0.0649
3282879,0.0092,-0.9890,0.0649
3282894,0.0092,-0.9890,0.0649
3282927,0.0093,-0.9890,0.0652
3282943,0.0093,-0.9890,0.0652
3282958,0.0094,-0.9889,0.0653
3282976,0.0094,-0.9889,0.0653
3283010,0.0094,-0.9889,0.0653
3283025,0.0094,-0.9889,0.0653
3283043,0.0094,-0.9890,0.0653
3283058,0.0094,-0.9890,0.0653
3283074,0.0095,-0.9890,0.0653
3283085,0.0095,-0.9890,0.0652
3283101,0.0095,-0.9890,0.0652
3283143,0.0095,-0.9890,0.0652
3283159,0.0095,-0.9890,0.0652
3283177,0.0094,-0.9890,0.0653
3283193,0.0094,-0.9890,0.0653
3283209,0.0094,-0.9889,0.0654
3283225,0.0093,-0.9889,0.0654
3283243,0.0092,-0.9889,0.0654
3283258,0.0092,-0.9889,0.0654
3283274,0.0092,-0.9888,0.0654
3283315,0.0090,-0.9889,0.0653
3283353,0.0090,-0.9890,0.0653
3283369,0.0090,-0.9891,0.0652
3283387,0.0090,-0.9891,0.0652
3283403,0.0090,-0.9893,0.0652
3283419,0.0090,-0.9893,0.0652
3283435,0.0090,-0.9893,0.0652
3283451,0.0092,-0.9893,0.0651
3283465,0.0093,-0.9893,0.0651
3283480,0.0095,-0.9893,0.0651
3283499,0.0096,-0.9893,0.0649
3283532,0.0099,-0.9893,0.0648
3283548,0.0100,-0.9893,0.0647
3283564,0.0103,-0.9893,0.0647
3283582,0.0104,-0.9893,0.0646
3283621,0.0106,-0.9891,0.0646
3283637,0.0106,-0.9891,0.0646
3283647,0.0106,-0.9890,0.0646
3283663,0.0106,-0.9890,0.0647
3283679,0.0106,-0.9889,0.0647
3283695,0.0106,-0.9889,0.0647
3283705,0.0106,-0.9888,0.0647
3283733,0.0106,-0.9888,0.0648
3283748,0.0105,-0.9888,0.0648
3283762,0.0105,-0.9886,0.0648
3283781,0.0104,-0.9886,0.0648
3283797,0.0103,-0.9886,0.0648
3283813,0.0103,-0.9886,0.0648
3283829,0.0101,-0.9888,0.0648
3283847,0.0101,-0.9888,0.0648
3283863,0.0100,-0.9889,0.0648
3283879,0.0100,-0.9889,0.0648
3283895,0.0099,-0.9890,0.0648
3283929,0.0099,-0.9891,0.0648
3283957,0.0100,-0.9893,0.0648
3283971,0.0100,-0.9893,0.0648
3283987,0.0100,-0.9893,0.0649
3284005,0.0101,-0.9893,0.0649
3284021,0.0101,-0.9893,0.0649
3284036,0.0101,-0.9893,0.0649
3284052,0.0101,-0.9891,0.0649
3284070,0.0103,-0.9891,0.0649
3284086,0.0103,-0.9890,0.0649
3284102,0.0103,-0.9890,0.0649
3284118,0.0103,-0.9890,0.0649
3284136,0.0103,-0.9890,0.0649
3284147,0.0103,-0.9890,0.0649
3284165,0.0103,-0.9890,0.0649
3284174,0.0103,-0.9890,0.0649
3284190,0.0101,-0.9891,0.0649
3284234,0.0101,-0.9891,0.0649
3284275,0.0100,-0.9891,0.0648
3284285,0.0100,-0.9891,0.0648
3284301,0.0100,-0.9891,0.0648
3284317,0.0099,-0.9891,0.0648
3284332,0.0100,-0.9891,0.0648
3284380,0.0100,-0.9891,0.0647
3284396,0.0100,-0.9891,0.0647
3284414,0.0100,-0.9891,0.0647
3284430,0.0100,-0.9891,0.0647
3284445,0.0100,-0.9891,0.0647
3284460,0.0100,-0.9891,0.0647
3284479,0.0099,-0.9891,0.0647
3284489,0.0099,-0.9891,0.0647
3284503,0.0099,-0.9891,0.0647
3284520,0.0100,-0.9891,0.0648
3284536,0.0100,-0.9890,0.0648
3284567,0.0101,-0.9890,0.0649
3284595,0.0103,-0.9890,0.0649
3284611,0.0103,-0.9890,0.0649
3284627,0.0104,-0.9890,0.0651
3284645,0.0104,-0.9890,0.0651
3284661,0.0104,-0.9890,0.0651
3284677,0.0104,-0.9890,0.0651
3284693,0.0104,-0.9889,0.0651
3284711,0.0104,-0.9889,0.0651
3284727,0.0104,-0.9889,0.0649
3284743,0.0103,-0.9889,0.0649
3284759,0.0103,-0.9889,0.0649
3284777,0.0101,-0.9889,0.0648
3284787,0.0101,-0.9889,0.0648
3284803,0.0101,-0.9889,0.0648
3284819,0.0100,-0.9889,0.0648
3284835,0.0100,-0.9889,0.0648
3284863,0.0099,-0.9889,0.0648
3284895,0.0100,-0.9889,0.0649
3284913,0.0101,-0.9889,0.0649
3284929,0.0101,-0.9889,0.0651
3284945,0.0101,-0.9889,0.0651
3284961,0.0101,-0.9889,0.0652
3284979,0.0103,-0.9889,0.0653
3284995,0.0103,-0.9889,0.0653
3285011,0.0103,-0.9889,0.0654
3285027,0.0101,-0.9889,0.0654
3285060,0.0100,-0.9889,0.0654
3285076,0.0100,-0.9890,0.0653
3285092,0.0099,-0.9890,0.0653
3285110,0.0098,-0.9891,0.0652
3285126,0.0096,-0.9891,0.0651
3285142,0.0096,-0.9891,0.0651
3285158,0.0095,-0.9891,0.0649
3285202,0.0095,-0.9891,0.0648
3285213,0.0096,-0.9891,0.0648
3285229,0.0096,-0.9891,0.0648
3285271,0.0099,-0.9890,0.0649
3285286,0.0100,-0.9889,0.0651
3285304,0.0101,-0.9889,0.0651
3285320,0.0101,-0.9888,0.0652
3285336,0.0101,-0.9888,0.0652
3285351,0.0101,-0.9888,0.0652
3285369,0.0101,-0.9888,0.0652
3285385,0.0100,-0.9888,0.0652
3285400,0.0100,-0.9888,0.0652
3285418,0.0100,-0.9888,0.0652
3285464,0.0100,-0.9888,0.0651
3285506,0.0100,-0.9889,0.0649
3285516,0.0099,-0.9889,0.0651
3285532,0.0099,-0.9889,0.0651
3285548,0.0099,-0.9889,0.0651
3285564,0.0099,-0.9889,0.0651
3285582,0.0099,-0.9890,0.0651
3285598,0.0098,-0.9890,0.0652
3285614,0.0098,-0.9890,0.0652
3285624,0.0098,-0.9890,0.0652
3285640,0.0096,-0.9890,0.0652
3285666,0.0096,-0.9889,0.0653
3285682,0.0096,-0.9889,0.0653
3285698,0.0096,-0.9889,0.0654
3285716,0.0096,-0.9889,0.0654
3285732,0.0096,-0.9889,0.0654
3285748,0.0098,-0.9889,0.0656
3285764,0.0098,-0.9889,0.0656
3285782,0.0098,-0.9889,0.0656
3285815,0.0098,-0.9890,0.0657
3285826,0.0098,-0.9890,0.0657
3285859,0.0098,-0.9890,0.0657
3285868,0.0098,-0.9890,0.0657
3285884,0.0096,-0.9891,0.0657
3285900,0.0096,-0.9891,0.0656
3285913,0.0096,-0.9891,0.0656
3285929,0.0095,-0.9891,0.0654
3285945,0.0095,-0.9891,0.0654
3285961,0.0094,-0.9893,0.0654
3285971,0.0094,-0.9893,0.0654
3285987,0.0093,-0.9893,0.0653
3286003,0.0093,-0.9893,0.0653
3286019,0.0092,-0.9893,0.0653
3286029,0.0092,-0.9893,0.0653
3286055,0.0090,-0.9893,0.0653
3286071,0.0090,-0.9893,0.0653
3286087,0.0090,-0.9893,0.0654
3286118,0.0092,-0.9893,0.0654
3286128,0.0092,-0.9891,0.0654
3286144,0.0093,-0.9891,0.0654
3286160,0.0094,-0.9891,0.0654
3286178,0.0094,-0.9890,0.0654
3286187,0.0095,-0.9890,0.0654
3286200,0.0096,-0.9890,0.0654
3286216,0.0098,-0.9889,0.0654
3286235,0.0100,-0.9889,0.0654
3286251,0.0101,-0.9889,0.0653
3286293,0.0105,-0.9889,0.0653
3286308,0.0106,-0.9889,0.0652
3286326,0.0106,-0.9889,0.0652
3286342,0.0106,-0.9890,0.0652
3286358,0.0106,-0.9890,0.0652
3286374,0.0105,-0.9891,0.0651
3286392,0.0104,-0.9891,0.0651
3286423,0.0100,-0.9893,0.0651
3286441,0.0099,-0.9894,0.0651
3286486,0.0098,-0.9894,0.0652
3286501,0.0098,-0.9894,0.0652
3286515,0.0098,-0.9894,0.0652
3286525,0.0098,-0.9894,0.0652
3286541,0.0099,-0.9893,0.0652
3286557,0.0099,-0.9893,0.0653
3286573,0.0100,-0.9891,0.0653
3286591,0.0101,-0.9891,0.0653
3286607,0.0101,-0.9890,0.0652
3286623,0.0101,-0.9890,0.0652
3286639,0.0101,-0.9890,0.0652
3286649,0.0101,-0.9890,0.0651
3286675,0.0100,-0.9890,0.0651
3286690,0.0100,-0.9890,0.0651
3286732,0.0100,-0.9891,0.0652
3286742,0.0099,-0.9891,0.0652
3286758,0.0099,-0.9891,0.0653
3286774,0.0099,-0.9891,0.0653
3286790,0.0098,-0.9890,0.0654
3286807,0.0098,-0.9890,0.0654
3286820,0.0096,-0.9890,0.0654
3286837,0.0096,-0.9889,0.0656
3286855,0.0096,-0.9888,0.0656
3286888,0.0096,-0.9888,0.0657
3286904,0.0096,-0.9886,0.0656
3286920,0.0096,-0.9886,0.0656
3286938,0.0096,-0.9888,0.0656
3286953,0.0096,-0.9888,0.0656
3286969,0.0096,-0.9888,0.0656
3286985,0.0096,-0.9889,0.0654
3287005,0.0098,-0.9890,0.0654
3287053,0.0096,-0.9891,0.0653
3287063,0.0096,-0.9891,0.0652
3287089,0.0095,-0.9891,0.0652
3287105,0.0094,-0.9891,0.0652
3287121,0.0094,-0.9891,0.0652
3287139,0.0094,-0.9891,0.0652
3287155,0.0094,-0.9891,0.0653
3287171,0.0094,-0.9891,0.0653
3287187,0.0094,-0.9893,0.0654
3287205,0.0094,-0.9893,0.0654
3287221,0.0094,-0.9893,0.0656
3287237,0.0095,-0.9893,0.0656
3287253,0.0095,-0.9893,0.0656
3287317,0.0096,-0.9893,0.0657
3287348,0.0098,-0.9891,0.0656
3287358,0.0098,-0.9891,0.0654
3287374,0.0099,-0.9891,0.0654
3287390,0.0099,-0.9891,0.0654
3287405,0.0100,-0.9890,0.0654
3287423,0.0100,-0.9890,0.0654
3287437,0.0100,-0.9890,0.0654
3287452,0.0101,-0.9890,0.0654
3287467,0.0101,-0.9890,0.0654
3287477,0.0101,-0.9890,0.0654
3287515,0.0103,-0.9891,0.0657
3287529,0.0103,-0.9891,0.0657
3287545,0.0104,-0.9891,0.0658
3287555,0.0104,-0.9891,0.0658
3287571,0.0104,-0.9891,0.0658
3287587,0.0104,-0.9890,0.0658
3287602,0.0104,-0.9890,0.0658
3287620,0.0104,-0.9889,0.0658
3287651,0.0103,-0.9889,0.0659
3287667,0.0103,-0.9889,0.0659
3287703,0.0100,-0.9888,0.0659
3287719,0.0100,-0.9889,0.0659
3287735,0.0099,-0.9889,0.0659
3287753,0.0099,-0.9889,0.0658
3287769,0.0099,-0.9890,0.0658
3287785,0.0099,-0.9890,0.0658
3287801,0.0098,-0.9890,0.0657
3287818,0.0098,-0.9890,0.0657
3287834,0.0098,-0.9890,0.0656
3287850,0.0098,-0.9890,0.0654
3287865,0.0098,-0.9890,0.0654
3287883,0.0098,-0.9889,0.0654
3287893,0.0098,-0.9889,0.0654
3287909,0.0099,-0.9888,0.0654
3287925,0.0100,-0.9888,0.0654
3287959,0.0101,-0.9888,0.0654
3287985,0.0103,-0.9888,0.0654
3287994,0.0103,-0.9888,0.0654
3288010,0.0103,-0.9888,0.0656
3288026,0.0103,-0.9889,0.0656
3288045,0.0103,-0.9889,0.0656
3288061,0.0103,-0.9889,0.0656
3288077,0.0103,-0.9889,0.0656
3288095,0.0103,-0.9889,0.0657
3288121,0.0101,-0.9889,0.0656
3288136,0.0101,-0.9889,0.0656
3288152,0.0101,-0.9888,0.0656
3288170,0.0101,-0.9886,0.0656
3288196,0.0103,-0.9886,0.0656
3288205,0.0103,-0.9886,0.0654
3288221,0.0103,-0.9886,0.0654
3288234,0.0103,-0.9886,0.0654
3288265,0.0104,-0.9888,0.0653
3288281,0.0104,-0.9888,0.0653
3288334,0.0103,-0.9889,0.0653
3288349,0.0103,-0.9889,0.0652
3288367,0.0101,-0.9889,0.0652
3288383,0.0101,-0.9889,0.0652
3288399,0.0100,-0.9889,0.0652
3288415,0.0099,-0.9889,0.0652
3288433,0.0099,-0.9889,0.0652
3288447,0.0099,-0.9889,0.0652
3288462,0.0099,-0.9889,0.0652
3288477,0.0099,-0.9889,0.0653
3288495,0.0099,-0.9889,0.0653
3288505,0.0099,-0.9889,0.0653
3288521,0.0099,-0.9889,0.0653
3288537,0.0099,-0.9889,0.0653
3288573,0.0100,-0.9890,0.0653
3288611,0.0100,-0.9891,0.0654
3288627,0.0100,-0.9891,0.0654
3288645,0.0100,-0.9891,0.0654
3288661,0.0100,-0.9891,0.0654
3288677,0.0099,-0.9891,0.0654
3288693,0.0099,-0.9891,0.0654
3288729,0.0099,-0.9891,0.0653
3288744,0.0099,-0.9890,0.0653
3288760,0.0099,-0.9890,0.0653
3288778,0.0099,-0.9890,0.0653
3288794,0.0099,-0.9890,0.0653
3288810,0.0100,-0.9889,0.0653
3288826,0.0100,-0.9889,0.0653
3288844,0.0101,-0.9889,0.0654
3288878,0.0103,-0.9888,0.0657
3288894,0.0103,-0.9888,0.0657
3288930,0.0101,-0.9889,0.0658
3288946,0.0101,-0.9889,0.0658
3288962,0.0101,-0.9889,0.0658
3288980,0.0101,-0.9890,0.0657
3288996,0.0100,-0.9890,0.0657
3289012,0.0100,-0.9890,0.0657
3289028,0.0100,-0.9890,0.0656
3289048,0.0100,-0.9890,0.0656
3289062,0.0100,-0.9890,0.0654
3289078,0.0100,-0.9890,0.0654
3289094,0.0100,-0.9890,0.0654
3289112,0.0100,-0.9890,0.0653
3289122,0.0101,-0.9890,0.0653
3289138,0.0101,-0.9891,0.0653
3289177,0.0103,-0.9891,0.0653
3289203,0.0103,-0.9891,0.0653
3289219,0.0103,-0.9891,0.0653
3289235,0.0103,-0.9891,0.0654
3289253,0.0103,-0.9891,0.0654
3289269,0.0101,-0.9893,0.0656
3289285,0.0101,-0.9893,0.0656
3289301,0.0100,-0.9893,0.0657
3289319,0.0099,-0.9893,0.0657
3289330,0.0098,-0.9893,0.0658
3289346,0.0098,-0.9893,0.0658
3289360,0.0098,-0.9893,0.0658
3289376,0.0096,-0.9893,0.0658
3289418,0.0098,-0.9891,0.0658
3289435,0.0098,-0.9891,0.0657
3289443,0.0098,-0.9891,0.0657
3289452,0.0098,-0.9890,0.0657
3289484,0.0099,-0.9889,0.0656
3289498,0.0099,-0.9889,0.0656
3289517,0.0100,-0.9889,0.0656
3289535,0.0101,-0.9889,0.0656
3289551,0.0101,-0.9889,0.0657
3289566,0.0101,-0.9889,0.0657
3289612,0.0103,-0.9889,0.0657
3289628,0.0103,-0.9889,0.0657
3289646,0.0103,-0.9889,0.0657
3289662,0.0101,-0.9890,0.0657
3289678,0.0101,-0.9895,0.0649
3289694,0.0101,-0.9907,0.0624
3289712,0.0104,-0.9930,0.0557
3289728,0.0110,-0.9973,0.0421
3289738,0.0114,-1.0005,0.0319
3289754,0.0125,-1.0090,0.0035
3289788,0.0159,-1.0328,-0.0829
3289814,0.0219,-1.0432,-0.1953
3289829,0.0238,-1.0410,-0.2246
3289845,0.0281,-1.0319,-0.2817
3289863,0.0349,-1.0126,-0.3591
3289877,0.0372,-1.0065,-0.3815
3289893,0.0415,-0.9961,-0.4200
3289909,0.0453,-0.9884,-0.4497
3289927,0.0481,-0.9832,-0.4705
3289945,0.0510,-0.9794,-0.4862
3289961,0.0518,-0.9795,-0.4880
3289977,0.0525,-0.9821,-0.4868
3290010,0.0530,-0.9927,-0.4412
3290026,0.0525,-0.9980,-0.4611
3290042,0.0515,-1.0026,-0.4478
3290060,0.0483,-1.0061,-0.4236
3290097,0.0403,-1.0007,-0.3691
3290113,0.0342,-0.9924,-0.3245
3290126,0.0266,-0.9802,-0.2640
3290141,0.0226,-0.9730,-0.2275
3290151,0.0142,-0.9580,-0.1415
3290166,0.0099,-0.9512,-0.0924
3290209,-0.0139,-0.9351,0.2548
3290218,-0.0176,-0.9370,0.3136
3290234,-0.0242,-0.9431,0.4238
3290254,-0.0298,-0.9502,0.5195
3290270,-0.0342,-0.9567,0.5969
3290286,-0.0376,-0.9622,0.6543
3290302,-0.0399,-0.9659,0.6913
3290320,-0.0411,-0.9677,0.7091
3290336,-0.0413,-0.9672,0.7098
3290355,-0.0400,-0.9651,0.6963
3290394,-0.0332,-0.9575,0.6199
3290436,-0.0247,-0.9514,0.5173
3290450,-0.0212,-0.9506,0.4771
3290469,-0.0178,-0.9504,0.4395
3290484,-0.0148,-0.9509,0.4056
3290500,-0.0121,-0.9520,0.3759
3290516,-0.0099,-0.9537,0.3500
3290534,-0.0083,-0.9556,0.3278
3290550,-0.0071,-0.9575,0.3086
3290560,-0.0066,-0.9584,0.3002
3290576,-0.0059,-0.9600,0.2850
3290591,-0.0054,-0.9615,0.2719
3290629,-0.0045,-0.9679,0.2415
3290645,-0.0040,-0.9722,0.2280
3290663,-0.0033,-0.9771,0.2133
3290705,-0.0006,-0.9867,0.1700
3290721,0.0007,-0.9877,0.1515
3290731,0.0013,-0.9875,0.1423
3290747,0.0026,-0.9863,0.1248
3290765,0.0037,-0.9841,0.1089
3290781,0.0048,-0.9817,0.0953
3290814,0.0061,-0.9777,0.0759
3290830,0.0065,-0.9767,0.0703
3290846,0.0067,-0.9764,0.0673
3290864,0.0067,-0.9769,0.0664
3290880,0.0065,-0.9781,0.0675
3290896,0.0062,-0.9797,0.0702
3290911,0.0060,-0.9816,0.0740
3290929,0.0056,-0.9833,0.0782
3290945,0.0052,-0.9850,0.0829
3290961,0.0050,-0.9865,0.0874
3290971,0.0049,-0.9871,0.0896
3291010,0.0045,-0.9888,0.0979
3291036,0.0045,-0.9888,0.1007
3291052,0.0045,-0.9885,0.1017
3291068,0.0046,-0.9880,0.1021
3291086,0.0046,-0.9875,0.1018
3291099,0.0048,-0.9871,0.1012
3291115,0.0048,-0.9866,0.1003
3291131,0.0049,-0.9862,0.0991
3291149,0.0049,-0.9860,0.0980
3291165,0.0049,-0.9857,0.0968
3291175,0.0049,-0.9857,0.0963
3291191,0.0049,-0.9856,0.0955
3291207,0.0048,-0.9856,0.0948
3291235,0.0048,-0.9858,0.0944
3291251,0.0048,-0.9860,0.0944
3291267,0.0048,-0.9861,0.0945
3291285,0.0048,-0.9863,0.0948
3291319,0.0048,-0.9865,0.0955
3291335,0.0048,-0.9866,0.0957
3291353,0.0048,-0.9866,0.0959
3291369,0.0048,-0.9866,0.0961
3291380,0.0048,-0.9866,0.0961
3291395,0.0049,-0.9866,0.0961
3291446,0.0049,-0.9866,0.0961
3291460,0.0050,-0.9866,0.0959
3291478,0.0050,-0.9866,0.0959
3291493,0.0050,-0.9865,0.0959
3291508,0.0051,-0.9865,0.0958
3291525,0.0051,-0.9863,0.0958
3291543,0.0051,-0.9863,0.0958
3291559,0.0051,-0.9862,0.0958
3291575,0.0051,-0.9862,0.0959
3291585,0.0051,-0.9862,0.0959
3291628,0.0050,-0.9862,0.0959
3291666,0.0049,-0.9862,0.0958
3291682,0.0049,-0.9862,0.0958
3291700,0.0049,-0.9862,0.0957
3291716,0.0050,-0.9862,0.0957
3291732,0.0050,-0.9862,0.0957
3291748,0.0050,-0.9863,0.0957
3291766,0.0050,-0.9863,0.0957
3291782,0.0049,-0.9863,0.0958
3291792,0.0049,-0.9863,0.0958
3291808,0.0048,-0.9865,0.0958
3291824,0.0048,-0.9865,0.0958
3291850,0.0046,-0.9865,0.0958
3291866,0.0046,-0.9865,0.0958
3291882,0.0046,-0.9865,0.0958
3291900,0.0046,-0.9865,0.0958
3291932,0.0046,-0.9865,0.0958
3291948,0.0046,-0.9865,0.0957
3291966,0.0046,-0.9865,0.0957
3291982,0.0046,-0.9865,0.0957
3292000,0.0048,-0.9865,0.0957
3292015,0.0048,-0.9865,0.0957
3292048,0.0049,-0.9865,0.0956
3292064,0.0049,-0.9865,0.0955
3292080,0.0049,-0.9865,0.0955
3292098,0.0048,-0.9865,0.0956
3292118,0.0048,-0.9865,0.0956
3292134,0.0048,-0.9865,0.0957
3292150,0.0048,-0.9865,0.0958
3292160,0.0046,-0.9865,0.0958
3292176,0.0046,-0.9865,0.0959
3292192,0.0048,-0.9865,0.0959
3292202,0.0048,-0.9865,0.0959
3292243,0.0049,-0.9865,0.0961
3292274,0.0050,-0.9865,0.0959
3292290,0.0050,-0.9866,0.0959
3292306,0.0050,-0.9866,0.0958
3292316,0.0050,-0.9866,0.0958
3292332,0.0050,-0.9866,0.0957
3292348,0.0049,-0.9866,0.0957
3292364,0.0049,-0.9866,0.0956
3292382,0.0049,-0.9866,0.0956
3292398,0.0048,-0.9866,0.0956
3292409,0.0048,-0.9866,0.0956
3292424,0.0048,-0.9866,0.0956
3292438,0.0046,-0.9866,0.0956
3292492,0.0045,-0.9867,0.0956
3292509,0.0046,-0.9867,0.0956
3292550,0.0048,-0.9867,0.0957
3292565,0.0049,-0.9867,0.0958
3292575,0.0049,-0.9867,0.0959
3292590,0.0049,-0.9867,0.0959
3292606,0.0050,-0.9866,0.0961
3292627,0.0051,-0.9866,0.0962
3292665,0.0052,-0.9866,0.0962
3292680,0.0052,-0.9866,0.0962
3292698,0.0051,-0.9866,0.0962
3292713,0.0051,-0.9866,0.0961
3292729,0.0051,-0.9866,0.0961
3292745,0.0051,-0.9866,0.0959
3292763,0.0050,-0.9865,0.0958
3292779,0.0051,-0.9865,0.0958
3292795,0.0051,-0.9865,0.0958
3292811,0.0052,-0.9865,0.0958
3292838,0.0052,-0.9865,0.0958
3292864,0.0054,-0.9865,0.0959
3292880,0.0054,-0.9865,0.0959
3292896,0.0052,-0.9865,0.0959
3292914,0.0052,-0.9865,0.0959
3292929,0.0052,-0.9865,0.0961
3292945,0.0051,-0.9865,0.0961
3292961,0.0051,-0.9865,0.0961
3292978,0.0050,-0.9865,0.0961
3292994,0.0050,-0.9865,0.0959
3293009,0.0050,-0.9865,0.0959
3293027,0.0050,-0.9865,0.0959
3293060,0.0049,-0.9865,0.0957
3293075,0.0049,-0.9865,0.0957
3293091,0.0049,-0.9865,0.0956
3293109,0.0049,-0.9865,0.0955
3293124,0.0049,-0.9863,0.0955
3293165,0.0049,-0.9863,0.0953
3293175,0.0049,-0.9863,0.0953
3293190,0.0049,-0.9863,0.0953
3293206,0.0048,-0.9865,0.0953
3293222,0.0048,-0.9865,0.0953
3293232,0.0046,-0.9865,0.0953
3293258,0.0045,-0.9866,0.0955
3293274,0.0045,-0.9866,0.0955
3293290,0.0045,-0.9866,0.0955
3293308,0.0045,-0.9866,0.0955
3293324,0.0045,-0.9866,0.0956
3293340,0.0045,-0.9866,0.0956
3293356,0.0046,-0.9867,0.0956
3293377,0.0046,-0.9867,0.0956
3293393,0.0048,-0.9867,0.0956
3293409,0.0049,-0.9867,0.0956
3293425,0.0049,-0.9867,0.0956
3293493,0.0050,-0.9865,0.0956
3293502,0.0050,-0.9865,0.0956
3293517,0.0049,-0.9863,0.0956
3293534,0.0049,-0.9863,0.0956
3293548,0.0048,-0.9863,0.0956
3293565,0.0048,-0.9863,0.0957
3293581,0.0048,-0.9863,0.0957
3293597,0.0048,-0.9865,0.0957
3293611,0.0046,-0.9865,0.0957
3293625,0.0046,-0.9866,0.0957
3293635,0.0046,-0.9866,0.0957
3293645,0.0046,-0.9867,0.0956
3293661,0.0046,-0.9868,0.0956
3293677,0.0046,-0.9868,0.0957
3293693,0.0046,-0.9869,0.0957
3293731,0.0046,-0.9869,0.0957
3293766,0.0045,-0.9869,0.0956
3293776,0.0045,-0.9869,0.0955
3293792,0.0045,-0.9868,0.0955
3293808,0.0045,-0.9868,0.0953
3293824,0.0046,-0.9868,0.0953
3293842,0.0046,-0.9867,0.0953
3293852,0.0046,-0.9867,0.0953
3293868,0.0048,-0.9867,0.0952
3293884,0.0048,-0.9867,0.0952
3293900,0.0048,-0.9867,0.0952
3293926,0.0048,-0.9867,0.0953
3293941,0.0046,-0.9866,0.0953
3293957,0.0046,-0.9866,0.0953
3293975,0.0046,-0.9866,0.0953
3293991,0.0048,-0.9866,0.0955
3294007,0.0048,-0.9866,0.0955
3294023,0.0048,-0.9866,0.0956
3294041,0.0048,-0.9866,0.0956
3294073,0.0049,-0.9865,0.0957
3294083,0.0050,-0.9865,0.0957
3294099,0.0051,-0.9863,0.0957
3294125,0.0054,-0.9865,0.0953
3294140,0.0055,-0.9874,0.0936
3294156,0.0059,-0.9917,0.0880
3294174,0.0062,-1.0009,0.0748
3294190,0.0070,-1.0143,0.0507
3294206,0.0079,-1.0278,0.0138
3294222,0.0096,-1.0356,-0.0348
3294240,0.0121,-1.0354,-0.0927
3294258,0.0153,-1.0298,-0.1564
3294267,0.0190,-1.0227,-0.2222
3294285,0.0229,-1.0166,-0.2863
3294320,0.0300,-1.0056,-0.3958
3294336,0.0328,-1.0005,-0.4365
3294375,0.0374,-0.9983,-0.4918
3294388,0.0377,-0.9999,-0.4957
3294404,0.0378,-1.0045,-0.4979
3294420,0.0374,-1.0101,-0.4932
3294435,0.0365,-1.0139,-0.4819
3294445,0.0361,-1.0145,-0.4734
3294462,0.0348,-1.0117,-0.4484
3294478,0.0323,-1.0032,-0.4084
3294489,0.0282,-0.9901,-0.3494
3294539,0.0065,-0.9475,-0.0458
3294555,-0.0027,-0.9414,0.0856
3294572,-0.0121,-0.9412,0.2198
3294588,-0.0210,-0.9452,0.3480
3294603,-0.0251,-0.9481,0.4075
3294619,-0.0323,-0.9541,0.5126
3294637,-0.0400,-0.9618,0.6283
3294652,-0.0415,-0.9637,0.6548
3294687,-0.0416,-0.9656,0.6986
3294697,-0.0404,-0.9646,0.6920
3294735,-0.0021,-0.9565,0.6093
3294751,-0.0293,-0.9547,0.5865
3294769,-0.0236,-0.9508,0.5151
3294784,-0.0217,-0.9500,0.4916
3294800,-0.0184,-0.9493,0.4465
3294816,-0.0156,-0.9502,0.4058
3294834,-0.0122,-0.9541,0.3546
3294850,-0.0114,-0.9558,0.3271
3294866,-0.0098,-0.9595,0.3153
3294882,-0.0085,-0.9629,0.2947
3294918,-0.0059,-0.9713,0.2538
3294934,-0.0048,-0.9747,0.2380
3294949,-0.0035,-0.9779,0.2211
3294993,-0.0007,-0.9814,0.1729
3295010,0.0005,-0.9805,0.1522
3295024,0.0017,-0.9788,0.1318
3295034,0.0023,-0.9778,0.1222
3295051,0.0034,-0.9760,0.1040
3295065,0.0043,-0.9746,0.0880
3295079,0.0045,-0.9741,0.0809
3295098,0.0054,-0.9741,0.0641
3295108,0.0056,-0.9745,0.0598
3295124,0.0060,-0.9757,0.0536
3295140,0.0062,-0.9775,0.0502
3295154,0.0062,-0.9799,0.0496
3295180,0.0062,-0.9833,0.0533
3295196,0.0061,-0.9855,0.0581
3295211,0.0060,-0.9865,0.0610
3295229,0.0055,-0.9888,0.0709
3295244,0.0054,-0.9893,0.0743
3295260,0.0050,-0.9900,0.0809
3295291,0.0045,-0.9901,0.0922
3295301,0.0044,-0.9900,0.0944
3295311,0.0042,-0.9895,0.0978
3295326,0.0040,-0.9891,0.0989
3295342,0.0039,-0.9885,0.1005
3295358,0.0038,-0.9878,0.1008
3295384,0.0038,-0.9867,0.0991
3295400,0.0039,-0.9865,0.0983
3295416,0.0042,-0.9862,0.0963
3295434,0.0045,-0.9860,0.0931
3295447,0.0046,-0.9860,0.0922
3295463,0.0048,-0.9861,0.0901
3295477,0.0050,-0.9862,0.0885
3295497,0.0051,-0.9865,0.0870
3295519,0.0052,-0.9868,0.0857
3295534,0.0054,-0.9869,0.0853
3295549,0.0052,-0.9871,0.0853
3295596,0.0050,-0.9873,0.0865
3295630,0.0049,-0.9873,0.0885
3295641,0.0049,-0.9873,0.0890
3295656,0.0048,-0.9872,0.0896
3295671,0.0048,-0.9872,0.0900
3295687,0.0048,-0.9872,0.0905
3295705,0.0046,-0.9871,0.0908
3295723,0.0046,-0.9871,0.0908
3295739,0.0046,-0.9869,0.0907
3295755,0.0045,-0.9869,0.0903
3295803,0.0045,-0.9871,0.0895
3295819,0.0045,-0.9871,0.0894
3295835,0.0045,-0.9872,0.0892
3295850,0.0045,-0.9872,0.0891
3295866,0.0045,-0.9873,0.0891
3295883,0.0045,-0.9874,0.0891
3295901,0.0045,-0.9874,0.0892
3295932,0.0046,-0.9875,0.0895
3295943,0.0046,-0.9875,0.0896
3295958,0.0046,-0.9875,0.0897
3295987,0.0048,-0.9874,0.0898
3296003,0.0048,-0.9874,0.0898
3296019,0.0049,-0.9873,0.0898
3296037,0.0049,-0.9873,0.0897
3296053,0.0049,-0.9872,0.0897
3296069,0.0049,-0.9871,0.0896
3296085,0.0049,-0.9871,0.0896
3296103,0.0048,-0.9869,0.0895
3296119,0.0048,-0.9869,0.0895
3296135,0.0048,-0.9869,0.0894
3296145,0.0048,-0.9869,0.0894
3296159,0.0046,-0.9871,0.0894
3296188,0.0046,-0.9872,0.0895
3296204,0.0046,-0.9872,0.0895
3296239,0.0046,-0.9873,0.0896
3296249,0.0046,-0.9874,0.0896
3296275,0.0046,-0.9875,0.0892
3296284,0.0046,-0.9877,0.0890
3296300,0.0046,-0.9886,0.0873
3296313,0.0048,-0.9924,0.0823
3296329,0.0049,-1.0273,0.0708
3296347,0.0057,-1.0150,0.0494
3296363,0.0072,-1.0292,0.0160
3296392,0.0111,-1.0408,-0.0564
3296408,0.0148,-1.0391,-0.1166
3296424,0.0189,-1.0321,-0.1823
3296434,0.0209,-1.0276,-0.2157
3296448,0.0249,-1.0183,-0.2814
3296464,0.0284,-1.0099,-0.3425
3296479,0.0311,-1.0033,-0.3958
3296496,0.0331,-0.9984,-0.4387
3296536,0.0341,-0.9939,-0.4984
3296555,0.0333,-0.9960,-0.5049
3296603,0.0302,-1.0049,-0.4796
3296619,0.0292,-1.0009,-0.4543
3296629,0.0284,-0.9967,-0.4368
3296645,0.0262,-0.9849,-0.3889
3296661,0.0222,-0.9700,-0.3204
3296674,0.0194,-0.9546,-0.2292
3296692,0.0087,-0.9423,-0.1172
3296708,0.0005,-0.9351,0.0106
3296723,-0.0037,-0.9337,0.0780
3296739,-0.0120,-0.9355,0.2147
3296790,-0.0359,-0.9606,0.6010
3296805,-0.0382,-0.9636,0.6340
3296836,-0.0432,-0.9717,0.7009
3296846,-0.0433,-0.9723,0.7023
3296862,-0.0424,-0.9718,0.6888
3296878,-0.0399,-0.9697,0.6582
3296894,-0.0366,-0.9666,0.6152
3296912,-0.0327,-0.9631,0.5646
3296928,-0.0286,-0.9601,0.5111
3296944,-0.0247,-0.9576,0.4586
3296962,-0.0190,-0.9553,0.3878
3296998,-0.0128,-0.9541,0.3165
3297013,-0.0103,-0.9540,0.2917
3297029,-0.0084,-0.9541,0.2734
3297047,-0.0071,-0.9550,0.2601
3297063,-0.0061,-0.9569,0.2502
3297079,-0.0055,-0.9603,0.2417
3297095,-0.0048,-0.9652,0.2330
3297113,-0.0042,-0.9712,0.2228
3297153,-0.0022,-0.9852,0.1863
3297163,-0.0018,-0.9869,0.1772
3297178,-0.0010,-0.9885,0.1581
3297207,0.0005,-0.9874,0.1284
3297223,0.0013,-0.9852,0.1097
3297239,0.0022,-0.9827,0.0930
3297249,0.0026,-0.9813,0.0856
3297265,0.0032,-0.9790,0.0728
3297281,0.0038,-0.9773,0.0631
3297297,0.0042,-0.9764,0.0566
3297315,0.0043,-0.9764,0.0529
3297331,0.0044,-0.9773,0.0530
3297347,0.0044,-0.9786,0.0552
3297365,0.0042,-0.9813,0.0619
3297400,0.0037,-0.9851,0.0740
3297416,0.0033,-0.9866,0.0800
3297441,0.0029,-0.9883,0.0876
3297450,0.0028,-0.9886,0.0897
3297466,0.0027,-0.9891,0.0929
3297482,0.0026,-0.9894,0.0947
3297496,0.0024,-0.9891,0.0955
3297514,0.0024,-0.9889,0.0952
3297531,0.0024,-0.9885,0.0944
3297547,0.0026,-0.9882,0.0930
3297563,0.0027,-0.9877,0.0914
3297578,0.0028,-0.9874,0.0898
3297637,0.0032,-0.9868,0.0858
3297655,0.0032,-0.9869,0.0854
3297671,0.0032,-0.9871,0.0852
3297685,0.0032,-0.9872,0.0853
3297701,0.0032,-0.9872,0.0854
3297719,0.0031,-0.9874,0.0859
3297760,0.0029,-0.9878,0.0869
3297778,0.0029,-0.9878,0.0872
3297819,0.0028,-0.9878,0.0878
3297835,0.0028,-0.9878,0.0878
3297853,0.0028,-0.9878,0.0878
3297869,0.0027,-0.9877,0.0876
3297885,0.0028,-0.9877,0.0875
3297901,0.0028,-0.9877,0.0874
3297919,0.0028,-0.9875,0.0873
3297935,0.0028,-0.9875,0.0872
3297951,0.0028,-0.9874,0.0872
3297967,0.0028,-0.9874,0.0870
3298006,0.0028,-0.9874,0.0870
3298020,0.0029,-0.9874,0.0870
3298052,0.0029,-0.9874,0.0872
3298062,0.0031,-0.9874,0.0873
3298078,0.0031,-0.9873,0.0872
3298094,0.0031,-0.9874,0.0865
3298110,0.0032,-0.9889,0.0841
3298128,0.0037,-0.9943,0.0774
3298144,0.0046,-1.0050,0.0627
3298160,0.0060,-1.0187,0.0371
3298176,0.0077,-1.0303,-0.0015
3298193,0.0103,-1.0352,-0.0529
3298222,0.0201,-1.0277,-0.1838
3298238,0.0265,-1.0198,-0.2543
3298254,0.0331,-1.0114,-0.3219
3298264,0.0361,-1.0073,-0.3536
3298290,0.0435,-0.9969,-0.4353
3298299,0.0450,-0.9948,-0.4573
3298315,0.0468,-0.9923,-0.4917
3298328,0.0465,-0.9922,-0.5135
3298363,0.0416,-0.9951,-0.5237
3298379,0.0374,-0.9960,-0.5129
3298410,0.0255,-0.9904,-0.4513
3298428,0.0171,-0.9839,-0.3950
3298436,0.0122,-0.9800,-0.3597
3298452,0.0021,-0.9712,-0.2750
3298468,-0.0081,-0.9613,-0.1730
3298483,-0.0172,-0.9514,-0.0575
3298497,-0.0214,-0.9469,0.0035
3298514,-0.0280,-0.9399,0.1908
3298531,-0.0325,-0.9369,0.3108
3298547,-0.0348,-0.9381,0.3669
3298561,-0.0354,-0.9436,0.4683
3298577,-0.0349,-0.9513,0.5510
3298597,-0.0328,-0.9625,0.6344
3298613,-0.0321,-0.9656,0.6624
3298629,-0.0303,-0.9703,0.6685
3298661,-0.0265,-0.9739,0.6487
3298706,-0.0221,-0.9690,0.5349
3298725,-0.0209,-0.9663,0.4894
3298738,-0.0194,-0.9635,0.4452
3298754,-0.0178,-0.9607,0.4044
3298770,-0.0160,-0.9585,0.3684
3298785,-0.0151,-0.9578,0.3524
3298836,-0.0092,-0.9626,0.2686
3298851,-0.0083,-0.9646,0.2594
3298869,-0.0059,-0.9706,0.2333
3298885,-0.0042,-0.9742,0.2162
3298900,-0.0033,-0.9758,0.2075
3298916,-0.0016,-0.9779,0.1899
3298934,0.0006,-0.9784,0.1631
3298965,0.0026,-0.9768,0.1373
3298981,0.0035,-0.9755,0.1217
3298999,0.0043,-0.9744,0.1078
3299009,0.0048,-0.9738,0.0959
3299025,0.0050,-0.9739,0.0864
3299040,0.0051,-0.9741,0.0825
3299056,0.0051,-0.9753,0.0764
3299085,0.0049,-0.9789,0.0706
3299100,0.0048,-0.9811,0.0704
3299116,0.0045,-0.9832,0.0719
3299134,0.0043,-0.9850,0.0746
3299150,0.0040,-0.9866,0.0781
3299166,0.0038,-0.9878,0.0822
3299182,0.0037,-0.9886,0.0864
3299200,0.0034,-0.9890,0.0906
3299210,0.0034,-0.9890,0.0925
3299224,0.0033,-0.9889,0.0962
3299240,0.0032,-0.9885,0.0991
3299275,0.0031,-0.9874,0.1029
3299304,0.0031,-0.9863,0.1038
3299319,0.0031,-0.9862,0.1036
3299335,0.0032,-0.9858,0.1029
3299353,0.0033,-0.9855,0.1013
3299369,0.0033,-0.9855,0.1001
3299385,0.0034,-0.9855,0.0995
3299401,0.0035,-0.9855,0.0983
3299415,0.0037,-0.9857,0.0973
3299445,0.0038,-0.9861,0.0961
3299461,0.0038,-0.9862,0.0958
3299477,0.0038,-0.9865,0.0958
3299487,0.0038,-0.9865,0.0959
3299503,0.0038,-0.9866,0.0962
3299519,0.0038,-0.9867,0.0966
3299535,0.0038,-0.9868,0.0969
3299576,0.0037,-0.9867,0.0977
3299589,0.0037,-0.9867,0.0977
3299606,0.0037,-0.9867,0.0978
3299654,0.0035,-0.9863,0.0978
3299670,0.0034,-0.9863,0.0977
3299680,0.0034,-0.9862,0.0975
3299696,0.0033,-0.9862,0.0974
3299712,0.0032,-0.9862,0.0973
3299727,0.0032,-0.9861,0.0973
3299745,0.0032,-0.9861,0.0972
3299761,0.0031,-0.9861,0.0972
3299777,0.0031,-0.9861,0.0972
3299793,0.0031,-0.9861,0.0972
3299813,0.0031,-0.9861,0.0972
3299824,0.0031,-0.9861,0.0972
3299840,0.0032,-0.9861,0.0973
3299879,0.0032,-0.9861,0.0974
3299920,0.0033,-0.9862,0.0974
3299935,0.0033,-0.9862,0.0974
3299953,0.0033,-0.9863,0.0973
3299968,0.0033,-0.9863,0.0973
3299984,0.0033,-0.9863,0.0973
3300000,0.0033,-0.9863,0.0972
3300018,0.0033,-0.9863,0.0972
3300028,0.0033,-0.9863,0.0972
3300044,0.0033,-0.9863,0.0972
3300060,0.0032,-0.9863,0.0970
3300075,0.0032,-0.9863,0.0970
3300104,0.0032,-0.9865,0.0966
3300119,0.0032,-0.9867,0.0956
3300135,0.0033,-0.9882,0.0928
3300153,0.0034,-0.9933,0.0854
3300187,0.0046,-1.0179,0.0437
3300203,0.0062,-1.0319,0.0044
3300221,0.0087,-1.0394,-0.0466
3300237,0.0122,-1.0393,-0.1068
3300253,0.0162,-1.0338,-0.1725
3300269,0.0206,-1.0265,-0.2397
3300316,0.0314,-1.0067,-0.4137
3300325,0.0328,-1.0038,-0.4348
3300341,0.0350,-0.9994,-0.4686
3300354,0.0359,-0.9979,-0.4814
3300370,0.0367,-0.9968,-0.4994
3300386,0.0365,-0.9976,-0.5074
3300402,0.0352,-0.9980,-0.5049
3300412,0.0342,-0.9973,-0.4990
3300428,0.0316,-0.9927,-0.4764
3300438,0.0277,-0.9828,-0.4362
3300453,0.0251,-0.9762,-0.4082
3300492,0.0078,-0.9392,-0.1801
3300522,-0.0098,-0.9258,0.0852
3300538,-0.0183,-0.9277,0.2247
3300554,-0.0259,-0.9340,0.3569
3300564,-0.0291,-0.9382,0.4177
3300580,-0.0344,-0.9478,0.5243
3300596,-0.0380,-0.9570,0.6072
3300610,-0.0398,-0.9650,0.6639
3300629,-0.0398,-0.9705,0.6945
3300640,-0.0392,-0.9723,0.7004
3300656,-0.0367,-0.9740,0.6957
3300672,-0.0332,-0.9731,0.6719
3300725,-0.0192,-0.9633,0.5061
3300740,-0.0175,-0.9623,0.4792
3300758,-0.0134,-0.9612,0.4032
3300797,-0.0096,-0.9637,0.3204
3300813,-0.0081,-0.9658,0.2883
3300823,-0.0074,-0.9668,0.2744
3300841,-0.0055,-0.9678,0.2410
3300857,-0.0044,-0.9670,0.2245
3300872,-0.0038,-0.9663,0.2178
3300923,-0.0002,-0.9631,0.1842
3300938,0.0004,-0.9635,0.1799
3300956,0.0018,-0.9659,0.1659
3300972,0.0027,-0.9683,0.1558
3300987,0.0031,-0.9696,0.1504
3301003,0.0039,-0.9723,0.1395
3301021,0.0049,-0.9762,0.1235
3301037,0.0051,-0.9775,0.1136
3301047,0.0056,-0.9799,0.1090
3301063,0.0059,-0.9818,0.1008
3301105,0.0062,-0.9857,0.0865
3301134,0.0061,-0.9869,0.0826
3301150,0.0060,-0.9874,0.0819
3301166,0.0057,-0.9877,0.0826
3301176,0.0057,-0.9878,0.0835
3301192,0.0055,-0.9877,0.0859
3301208,0.0052,-0.9874,0.0891
3301224,0.0051,-0.9871,0.0928
3301242,0.0049,-0.9867,0.0967
3301259,0.0046,-0.9861,0.1021
3301275,0.0045,-0.9860,0.1036
3301291,0.0045,-0.9856,0.1064
3301328,0.0044,-0.9851,0.1102
3301344,0.0044,-0.9850,0.1104
3301360,0.0045,-0.9850,0.1100
3301370,0.0045,-0.9850,0.1096
3301409,0.0046,-0.9852,0.1066
3301425,0.0046,-0.9854,0.1052
3301435,0.0046,-0.9855,0.1047
3301453,0.0048,-0.9856,0.1036
3301469,0.0048,-0.9856,0.1029
3301485,0.0048,-0.9857,0.1025
3301521,0.0048,-0.9857,0.1025
3301537,0.0046,-0.9857,0.1028
3301553,0.0046,-0.9857,0.1031
3301571,0.0046,-0.9857,0.1038
3301587,0.0046,-0.9857,0.1040
3301602,0.0048,-0.9856,0.1044
3301617,0.0048,-0.9856,0.1046
3301636,0.0049,-0.9855,0.1047
3301655,0.0050,-0.9855,0.1049
3301671,0.0050,-0.9855,0.1049
3301710,0.0051,-0.9855,0.1046
3301755,0.0050,-0.9856,0.1044
3301769,0.0050,-0.9856,0.1042
3301786,0.0049,-0.9857,0.1042
3301802,0.0049,-0.9857,0.1042
3301817,0.0048,-0.9857,0.1042
3301833,0.0048,-0.9857,0.1042
3301851,0.0048,-0.9857,0.1042
3301862,0.0049,-0.9858,0.1042
3301878,0.0049,-0.9858,0.1042
3301894,0.0049,-0.9858,0.1042
3301945,0.0049,-0.9858,0.1042
3301961,0.0049,-0.9858,0.1042
3301979,0.0049,-0.9858,0.1044
3302021,0.0049,-0.9856,0.1045
3302037,0.0049,-0.9856,0.1045
3302047,0.0049,-0.9855,0.1045
3302065,0.0049,-0.9854,0.1045
3302080,0.0049,-0.9854,0.1045
3302096,0.0048,-0.9854,0.1045
3302132,0.0046,-0.9852,0.1045
3302148,0.0046,-0.9854,0.1046
3302164,0.0045,-0.9854,0.1046
3302182,0.0045,-0.9855,0.1046
3302198,0.0045,-0.9855,0.1046
3302214,0.0045,-0.9855,0.1046
3302230,0.0045,-0.9856,0.1046
3302248,0.0046,-0.9856,0.1046
3302266,0.0046,-0.9857,0.1046
3302281,0.0048,-0.9857,0.1046
3302329,0.0049,-0.9858,0.1045
3302361,0.0050,-0.9858,0.1044
3302377,0.0051,-0.9858,0.1044
3302392,0.0051,-0.9858,0.1044
3302402,0.0051,-0.9858,0.1044
3302417,0.0051,-0.9858,0.1044
3302433,0.0050,-0.9858,0.1044
3302449,0.0050,-0.9858,0.1044
3302488,0.0049,-0.9858,0.1042
3302504,0.0048,-0.9857,0.1042
3302520,0.0048,-0.9857,0.1041
3302530,0.0048,-0.9857,0.1041
3302546,0.0046,-0.9857,0.1040
3302562,0.0046,-0.9857,0.1039
3302578,0.0045,-0.9857,0.1039
3302596,0.0045,-0.9857,0.1038
3302631,0.0045,-0.9857,0.1038
3302647,0.0045,-0.9857,0.1039
3302657,0.0045,-0.9858,0.1039
3302676,0.0046,-0.9858,0.1040
3302692,0.0046,-0.9858,0.1040
3302708,0.0046,-0.9860,0.1040
3302764,0.0048,-0.9860,0.1040
3302782,0.0048,-0.9858,0.1041
3302796,0.0049,-0.9858,0.1040
3302811,0.0049,-0.9858,0.1040
3302827,0.0049,-0.9861,0.1035
3302845,0.0050,-0.9895,0.0994
3302861,0.0051,-0.9928,0.0901
3302879,0.0061,-1.0112,0.0717
3302895,0.0079,-1.0275,0.0414
3302967,0.0256,-1.0341,-0.1869
3302980,0.0297,-1.0255,-0.2550
3302996,0.0330,-1.0164,-0.3188
3303012,0.0355,-1.0072,-0.3756
3303028,0.0374,-0.9993,-0.4230
3303038,0.0380,-0.9963,-0.4427
3303054,0.0386,-0.9928,-0.4745
3303070,0.0381,-0.9924,-0.4957
3303080,0.0376,-0.9933,-0.5023
3303096,0.0363,-0.9962,-0.5085
3303125,0.0328,-1.0042,-0.4976
3303139,0.0321,-1.0051,-0.4900
3303155,0.0306,-1.0045,-0.4674
3303173,0.0284,-0.9990,-0.4315
3303189,0.0247,-0.9884,-0.3782
3303205,0.0192,-0.9741,-0.3040
3303237,0.0046,-0.9445,-0.0934
3303247,0.0005,-0.9387,0.0320
3303263,-0.0079,-0.9308,0.1013
3303281,-0.0204,-0.9285,0.2996
3303296,-0.0242,-0.9302,0.3617
3303311,-0.0309,-0.9366,0.4750
3303340,-0.0397,-0.9532,0.6388
3303356,-0.0416,-0.9600,0.6841
3303372,-0.0421,-0.9647,0.7056
3303382,-0.0416,-0.9664,0.7080
3303398,-0.0398,-0.9683,0.6986
3303414,-0.0366,-0.9680,0.6730
3303430,-0.0325,-0.9662,0.6355
3303448,-0.0281,-0.9633,0.5907
3303464,-0.0238,-0.9595,0.5425
3303485,-0.0198,-0.9557,0.4944
3303501,-0.0164,-0.9524,0.4493
3303530,-0.0114,-0.9500,0.3734
3303571,-0.0079,-0.9541,0.3090
3303581,-0.0076,-0.9556,0.2996
3303597,-0.0071,-0.9592,0.2830
3303613,-0.0066,-0.9635,0.2682
3303628,-0.0059,-0.9683,0.2539
3303646,-0.0050,-0.9729,0.2393
3303662,-0.0039,-0.9771,0.2235
3303678,-0.0026,-0.9801,0.2064
3303689,-0.0020,-0.9810,0.1975
3303705,-0.0007,-0.9816,0.1788
3303750,0.0024,-0.9768,0.1251
3303766,0.0034,-0.9750,0.1105
3303776,0.0038,-0.9742,0.1040
3303792,0.0043,-0.9734,0.0929
3303808,0.0046,-0.9733,0.0845
3303822,0.0048,-0.9735,0.0812
3303840,0.0049,-0.9753,0.0750
3303871,0.0048,-0.9784,0.0731
3303889,0.0045,-0.9818,0.0747
3303937,0.0040,-0.9866,0.0826
3303951,0.0038,-0.9878,0.0867
3303969,0.0037,-0.9885,0.0907
3303984,0.0035,-0.9889,0.0947
3304000,0.0034,-0.9889,0.0984
3304016,0.0033,-0.9885,0.1014
3304034,0.0032,-0.9879,0.1040
3304050,0.0031,-0.9873,0.1058
3304066,0.0031,-0.9866,0.1069
3304082,0.0031,-0.9860,0.1075
3304092,0.0031,-0.9857,0.1075
3304124,0.0031,-0.9849,0.1066
3304138,0.0031,-0.9846,0.1056
3304180,0.0032,-0.9847,0.1024
3304190,0.0032,-0.9847,0.1018
3304207,0.0033,-0.9850,0.1006
3304221,0.0033,-0.9852,0.0997
3304237,0.0033,-0.9855,0.0991
3304254,0.0034,-0.9857,0.0988
3304270,0.0034,-0.9860,0.0986
3304286,0.0034,-0.9861,0.0988
3304296,0.0034,-0.9862,0.0989
3304312,0.0034,-0.9863,0.0991
3304357,0.0034,-0.9863,0.1003
3304366,0.0034,-0.9863,0.1005
3304386,0.0034,-0.9862,0.1007
3304402,0.0034,-0.9862,0.1008
3304418,0.0034,-0.9861,0.1010
3304434,0.0033,-0.9860,0.1010
3304452,0.0033,-0.9858,0.1008
3304483,0.0031,-0.9857,0.1007
3304501,0.0031,-0.9857,0.1006
3304539,0.0031,-0.9857,0.1003
3304547,0.0031,-0.9858,0.1003
3304560,0.0031,-0.9858,0.1003
3304575,0.0031,-0.9858,0.1003
3304585,0.0032,-0.9858,0.1003
3304599,0.0033,-0.9860,0.1003
3304616,0.0034,-0.9860,0.1003
3304631,0.0035,-0.9860,0.1003
3304649,0.0037,-0.9860,0.1005
3304665,0.0038,-0.9860,0.1005
3304681,0.0038,-0.9861,0.1005
3304697,0.0039,-0.9861,0.1005
3304708,0.0039,-0.9861,0.1003
3304753,0.0038,-0.9861,0.1003
3304788,0.0037,-0.9861,0.1002
3304798,0.0037,-0.9860,0.1002
3304814,0.0035,-0.9860,0.1003
3304829,0.0035,-0.9860,0.1003
3304845,0.0035,-0.9860,0.1003
3304863,0.0035,-0.9860,0.1005
3304879,0.0035,-0.9861,0.1002
3304895,0.0035,-0.9866,0.0992
3304913,0.0035,-0.9890,0.0957
3304962,0.0042,-1.0210,0.0385
3304978,0.0051,-1.0326,-0.0040
3304996,0.0071,-1.0378,-0.0576
3305012,0.0096,-1.0361,-0.1193
3305028,0.0129,-1.0302,-0.1851
3305044,0.0164,-1.0228,-0.2512
3305062,0.0195,-1.0156,-0.3138
3305093,0.0254,-1.0033,-0.4158
3305109,0.0283,-0.9991,-0.4509
3305119,0.0297,-0.9979,-0.4642
3305151,0.0338,-0.9993,-0.4926
3305166,0.0348,-1.0031,-0.4938
3305182,0.0350,-1.0078,-0.4888
3305192,0.0348,-1.0104,-0.4845
3305208,0.0342,-1.0150,-0.4730
3305224,0.0332,-1.0173,-0.4586
3305240,0.0317,-1.0156,-0.4397
3305258,0.0294,-1.0089,-0.4124
3305274,0.0258,-0.9971,-0.3716
3305290,0.0206,-0.9813,-0.3127
3305306,0.0140,-0.9633,-0.2336
3305345,-0.0062,-0.9288,0.0449
3305359,-0.0149,-0.9253,0.1754
3305398,-0.0308,-0.9369,0.4282
3305408,-0.0341,-0.9421,0.5468
3305424,-0.0393,-0.9530,0.5819
3305440,-0.0426,-0.9625,0.6575
3305456,-0.0441,-0.9694,0.7090
3305474,-0.0436,-0.9733,0.7418
3305490,-0.0416,-0.9729,0.7418
3305506,-0.0385,-0.9700,0.7279
3305522,-0.0345,-0.9648,0.6985
3305532,-0.0305,-0.9586,0.6578
3305561,-0.0245,-0.9498,0.5851
3305575,-0.0209,-0.9452,0.5344
3305590,-0.0176,-0.9423,0.4857
3305608,-0.0148,-0.9410,0.4413
3305623,-0.0126,-0.9415,0.4021
3305640,-0.0110,-0.9436,0.3684
3305653,-0.0104,-0.9453,0.3538
3305671,-0.0095,-0.9492,0.3165
3305705,-0.0078,-0.9579,0.2808
3305720,-0.0073,-0.9591,0.2736
3305776,-0.0032,-0.9689,0.2256
3305792,-0.0017,-0.9723,0.2096
3305802,-0.0010,-0.9740,0.2010
3305818,0.0005,-0.9768,0.1831
3305834,0.0018,-0.9785,0.1644
3305850,0.0031,-0.9792,0.1458
3305865,0.0043,-0.9792,0.1279
3305875,0.0048,-0.9791,0.1194
3305891,0.0055,-0.9786,0.1040
3305907,0.0062,-0.9781,0.0906
3305923,0.0066,-0.9780,0.0796
3305974,0.0073,-0.9799,0.0614
3306005,0.0071,-0.9825,0.0615
3306015,0.0070,-0.9833,0.0629
3306031,0.0068,-0.9847,0.0667
3306047,0.0065,-0.9860,0.0717
3306063,0.0062,-0.9869,0.0774
3306081,0.0060,-0.9877,0.0833
3306097,0.0056,-0.9882,0.0890
3306113,0.0054,-0.9884,0.0940
3306129,0.0051,-0.9884,0.0983
3306171,0.0046,-0.9878,0.1044
3306186,0.0046,-0.9874,0.1051
3306202,0.0046,-0.9871,0.1049
3306212,0.0046,-0.9869,0.1045
3306228,0.0046,-0.9866,0.1034
3306244,0.0046,-0.9863,0.1018
3306260,0.0048,-0.9862,0.1000
3306278,0.0049,-0.9861,0.0980
3306310,0.0050,-0.9861,0.0947
3306326,0.0051,-0.9862,0.0934
3306344,0.0052,-0.9862,0.0924
3306368,0.0052,-0.9863,0.0916
3306382,0.0052,-0.9865,0.0914
3306398,0.0052,-0.9865,0.0916
3306429,0.0052,-0.9866,0.0925
3306445,0.0052,-0.9866,0.0933
3306461,0.0052,-0.9866,0.0940
3306471,0.0052,-0.9866,0.0944
3306487,0.0052,-0.9866,0.0950
3306503,0.0052,-0.9865,0.0956
3306519,0.0052,-0.9865,0.0959
3306537,0.0051,-0.9865,0.0962
3306557,0.0051,-0.9863,0.0963
3306571,0.0051,-0.9863,0.0963
3306613,0.0050,-0.9862,0.0958
3306642,0.0050,-0.9862,0.0953
3306655,0.0050,-0.9862,0.0952
3306672,0.0050,-0.9863,0.0950
3306689,0.0051,-0.9863,0.0947
3306704,0.0051,-0.9863,0.0946
3306720,0.0051,-0.9865,0.0946
3306737,0.0051,-0.9865,0.0946
3306755,0.0051,-0.9865,0.0946
3306766,0.0052,-0.9866,0.0946
3306782,0.0052,-0.9866,0.0947
3306798,0.0052,-0.9866,0.0948
3306850,0.0052,-0.9871,0.0942
3306866,0.0054,-0.9889,0.0918
3306884,0.0054,-0.9946,0.0846
3306922,0.0062,-1.0277,0.0250
3306938,0.0074,-1.0385,-0.0197
3306948,0.0083,-1.0410,-0.0460
3306966,0.0106,-1.0404,-0.1053
3306982,0.0134,-1.0349,-0.1702
3306998,0.0164,-1.0277,-0.2361
3307046,0.0250,-1.0056,-0.4019
3307062,0.0276,-1.0007,-0.4390
3307080,0.0298,-0.9980,-0.4653
3307096,0.0315,-0.9972,-0.4816
3307112,0.0327,-0.9979,-0.4888
3307128,0.0337,-1.0000,-0.4884
3307146,0.0345,-1.0031,-0.4823
3307162,0.0355,-1.0068,-0.4722
3307172,0.0360,-1.0089,-0.4663
3307188,0.0366,-1.0132,-0.4536
3307219,0.0359,-1.0188,-0.4280
3307250,0.0334,-1.0107,-0.3943
3307265,0.0326,-1.0057,-0.3807
3307281,0.0299,-0.9922,-0.3429
3307291,0.0260,-0.9749,-0.2866
3307306,0.0234,-0.9655,-0.2506
3307322,0.0176,-0.9473,-0.1627
3307338,0.0107,-0.9325,-0.0555
3307356,-0.0006,-0.9214,0.1295
3307374,-0.0083,-0.9222,0.2583
3307390,-0.0159,-0.9286,0.3824
3307405,-0.0194,-0.9377,0.4945
3307441,-0.0332,-0.9553,0.6610
3307457,-0.0360,-0.9613,0.7102
3307473,-0.0371,-0.9648,0.7368
3307491,-0.0365,-0.9655,0.7424
3307525,-0.0320,-0.9591,0.7023
3307541,-0.0284,-0.9540,0.6648
3307559,-0.0244,-0.9486,0.6208
3307577,-0.0200,-0.9438,0.5742
3307593,-0.0159,-0.9402,0.5280
3307609,-0.0121,-0.9380,0.4846
3307645,-0.0048,-0.9395,0.3977
3307661,-0.0026,-0.9425,0.3726
3307677,-0.0010,-0.9463,0.3523
3307694,0.0002,-0.9503,0.3361
3307708,0.0007,-0.9523,0.3293
3307723,0.0013,-0.9557,0.3179
3307740,0.0018,-0.9585,0.3085
3307758,0.0022,-0.9613,0.2997
3307774,0.0026,-0.9644,0.2900
3307786,0.0032,-0.9683,0.2787
3307825,0.0057,-0.9801,0.2374
3307881,0.0100,-0.9856,0.1688
3307899,0.0120,-0.9829,0.1345
3307913,0.0126,-0.9817,0.1241
3307929,0.0137,-0.9790,0.1052
3307945,0.0144,-0.9767,0.0896
3307963,0.0149,-0.9750,0.0775
3307979,0.0153,-0.9741,0.0692
3307990,0.0154,-0.9742,0.0643
3308006,0.0154,-0.9752,0.0626
3308054,0.0149,-0.9800,0.0699
3308070,0.0145,-0.9822,0.0721
3308088,0.0140,-0.9852,0.0797
3308127,0.0134,-0.9882,0.0894
3308143,0.0133,-0.9889,0.0935
3308153,0.0132,-0.9893,0.0968
3308169,0.0131,-0.9893,0.0983
3308185,0.0131,-0.9891,0.1006
3308195,0.0131,-0.9886,0.1021
3308209,0.0131,-0.9884,0.1027
3308238,0.0131,-0.9872,0.1034
3308254,0.0132,-0.9866,0.1031
3308270,0.0132,-0.9860,0.1027
3308291,0.0133,-0.9856,0.1021
3308307,0.0133,-0.9854,0.1013
3308323,0.0134,-0.9852,0.1005
3308339,0.0134,-0.9851,0.0997
3308349,0.0134,-0.9851,0.0991
3308365,0.0134,-0.9854,0.0975
3308383,0.0135,-0.9857,0.0938
3308392,0.0137,-0.9858,0.0924
3308406,0.0138,-0.9860,0.0911
3308476,0.0142,-0.9872,0.0894
3308486,0.0140,-0.9872,0.0906
3308502,0.0140,-0.9871,0.0936
3308518,0.0139,-0.9869,0.0972
3308534,0.0138,-0.9866,0.1010
3308552,0.0137,-0.9863,0.1046
3308568,0.0137,-0.9861,0.1077
3308584,0.0135,-0.9857,0.1099
3308600,0.0134,-0.9855,0.1112
3308610,0.0134,-0.9854,0.1115
3308639,0.0134,-0.9852,0.1105
3308655,0.0134,-0.9854,0.1088
3308670,0.0134,-0.9854,0.1078
3308680,0.0135,-0.9856,0.1055
3308696,0.0135,-0.9857,0.1030
3308710,0.0135,-0.9858,0.1017
3308735,0.0137,-0.9862,0.0980
3308745,0.0137,-0.9865,0.0959
3308761,0.0137,-0.9867,0.0942
3308777,0.0138,-0.9868,0.0935
3308793,0.0138,-0.9869,0.0924
3308849,0.0139,-0.9871,0.0919
3308865,0.0139,-0.9869,0.0925
3308875,0.0138,-0.9869,0.0930
3308891,0.0138,-0.9868,0.0939
3308907,0.0137,-0.9868,0.0950
3308921,0.0137,-0.9867,0.0961
3308939,0.0137,-0.9871,0.0967
3308955,0.0139,-0.9888,0.0953
3308971,0.0144,-0.9939,0.0891
3308987,0.0151,-1.0037,0.0743
3309005,0.0162,-1.0165,0.0480
3309016,0.0181,-1.0283,0.0092
3309057,0.0254,-1.0331,-0.1328
3309098,0.0345,-1.0172,-0.2927
3309114,0.0361,-1.0142,-0.3529
3309132,0.0398,-1.0062,-0.3956
3309148,0.0413,-1.0018,-0.4323
3309163,0.0419,-1.0000,-0.4465
3309179,0.0426,-0.9977,-0.4672
3309197,0.0433,-0.9979,-0.4803
3309212,0.0432,-0.9991,-0.4807
3309222,0.0424,-1.0031,-0.4766
3309237,0.0414,-1.0054,-0.4725
3309253,0.0387,-1.0090,-0.4608
3309282,0.0317,-1.0040,-0.4169
3309298,0.0273,-0.9937,-0.3767
3309314,0.0221,-0.9789,-0.3186
3309327,0.0190,-0.9703,-0.2817
3309358,0.0065,-0.9387,-0.0834
3309374,0.0002,-0.9293,0.0394
3309392,-0.0056,-0.9260,0.1689
3309408,-0.0114,-0.9287,0.2975
3309423,-0.0165,-0.9354,0.4171
3309434,-0.0188,-0.9397,0.4714
3309450,-0.0227,-0.9485,0.5654
3309479,-0.0265,-0.9626,0.6838
3309495,-0.0265,-0.9667,0.7065
3309511,-0.0253,-0.9683,0.7067
3309521,-0.0245,-0.9684,0.6993
3309537,-0.0225,-0.9672,0.6725
3309553,-0.0203,-0.9650,0.6329
3309569,-0.0178,-0.9624,0.5854
3309587,-0.0151,-0.9597,0.5343
3309603,-0.0122,-0.9575,0.4834
3309619,-0.0092,-0.9559,0.4359
3309637,-0.0062,-0.9550,0.3937
3309672,-0.0022,-0.9545,0.3293
3309701,-0.0004,-0.9550,0.2915
3309716,0.0002,-0.9550,0.2806
3309732,0.0006,-0.9552,0.2734
3309750,0.0010,-0.9564,0.2683
3309766,0.0012,-0.9591,0.2631
3309782,0.0016,-0.9633,0.2561
3309798,0.0022,-0.9686,0.2463
3309816,0.0033,-0.9741,0.2333
3309832,0.0046,-0.9788,0.2170
3309843,0.0055,-0.9806,0.2080
3309859,0.0071,-0.9827,0.1884
3309912,0.0120,-0.9801,0.1182
3309928,0.0128,-0.9785,0.1014
3309938,0.0131,-0.9779,0.0941
3309970,0.0138,-0.9768,0.0724
3309986,0.0138,-0.9772,0.0664
3310003,0.0137,-0.9781,0.0636
3310019,0.0133,-0.9796,0.0640
3310034,0.0132,-0.9805,0.0652
3310044,0.0127,-0.9822,0.0691
3310060,0.0122,-0.9838,0.0750
3310101,0.0112,-0.9869,0.0929
3310116,0.0110,-0.9873,0.0964
3310134,0.0107,-0.9879,0.1061
3310149,0.0106,-0.9879,0.1088
3310165,0.0105,-0.9878,0.1132
3310181,0.0105,-0.9874,0.1162
3310199,0.0105,-0.9867,0.1182
3310215,0.0106,-0.9865,0.1182
3310230,0.0107,-0.9860,0.1174
3310251,0.0110,-0.9852,0.1147
3310304,0.0115,-0.9847,0.1071
3310322,0.0117,-0.9847,0.1039
3310338,0.0117,-0.9849,0.1030
3310354,0.0118,-0.9851,0.1017
3310370,0.0118,-0.9852,0.1011
3310398,0.0118,-0.9857,0.1013
3310407,0.0117,-0.9857,0.1017
3310423,0.0117,-0.9858,0.1025
3310437,0.0116,-0.9860,0.1036
3310480,0.0115,-0.9860,0.1062
3310496,0.0114,-0.9860,0.1068
3310512,0.0115,-0.9858,0.1073
3310522,0.0115,-0.9858,0.1074
3310538,0.0115,-0.9857,0.1074
3310554,0.0116,-0.9857,0.1072
3310589,0.0117,-0.9856,0.1064
3310599,0.0117,-0.9855,0.1062
3310615,0.0117,-0.9855,0.1058
3310631,0.0117,-0.9855,0.1056
3310647,0.0117,-0.9855,0.1053
3310657,0.0117,-0.9855,0.1053
3310686,0.0117,-0.9855,0.1053
3310702,0.0117,-0.9855,0.1053
3310717,0.0117,-0.9855,0.1055
3310727,0.0117,-0.9855,0.1055
3310744,0.0116,-0.9855,0.1056
3310760,0.0116,-0.9855,0.1057
3310776,0.0116,-0.9856,0.1058
3310794,0.0116,-0.9856,0.1058
3310810,0.0116,-0.9856,0.1058
3310826,0.0115,-0.9855,0.1058
3310842,0.0115,-0.9855,0.1058
3310898,0.0117,-0.9901,0.0979
3310929,0.0127,-1.0052,0.0767
3310946,0.0140,-1.0194,0.0494
3310962,0.0162,-1.0317,0.0100
3310978,0.0190,-1.0382,-0.0409
3310994,0.0226,-1.0381,-0.1008
3311004,0.0245,-1.0359,-0.1642
3311020,0.0286,-1.0291,-0.1995
3311036,0.0326,-1.0211,-0.2653
3311052,0.0361,-1.0132,-0.3265
3311062,0.0389,-1.0060,-0.3800
3311103,0.0422,-0.9965,-0.4686
3311119,0.0426,-0.9967,-0.4783
3311137,0.0441,-1.0015,-0.4929
3311153,0.0449,-1.0065,-0.4926
3311168,0.0453,-1.0093,-0.4899
3311184,0.0454,-1.0149,-0.4810
3311202,0.0449,-1.0205,-0.4612
3311237,0.0424,-1.0127,-0.4178
3311253,0.0393,-1.0005,-0.3812
3311284,0.0270,-0.9626,-0.2556
3311300,0.0225,-0.9524,-0.1616
3311316,0.0126,-0.9344,-0.1072
3311326,0.0021,-0.9225,0.0134
3311342,-0.0081,-0.9180,0.1438
3311357,-0.0129,-0.9182,0.2101
3311373,-0.0219,-0.9226,0.3394
3311391,-0.0327,-0.9354,0.5109
3311407,-0.0354,-0.9452,0.6017
3311423,-0.0393,-0.9498,0.6385
3311439,-0.0411,-0.9579,0.6938
3311453,-0.0408,-0.9637,0.7245
3311463,-0.0399,-0.9656,0.7311
3311473,-0.0370,-0.9674,0.7284
3311489,-0.0352,-0.9675,0.7078
3311505,-0.0311,-0.9664,0.6923
3311536,-0.0237,-0.9607,0.6074
3311567,-0.0171,-0.9539,0.5115
3311583,-0.0139,-0.9512,0.4669
3311599,-0.0112,-0.9490,0.4272
3311609,-0.0100,-0.9482,0.4094
3311625,-0.0084,-0.9471,0.3782
3311641,-0.0074,-0.9468,0.3527
3311657,-0.0070,-0.9468,0.3323
3311696,-0.0059,-0.9500,0.2974
3311712,-0.0051,-0.9525,0.2867
3311725,-0.0048,-0.9540,0.2815
3311735,-0.0044,-0.9556,0.2711
3311752,-0.0035,-0.9592,0.2601
3311768,-0.0026,-0.9635,0.2540
3311784,-0.0013,-0.9681,0.2407
3311802,0.0009,-0.9756,0.2175
3311840,0.0038,-0.9829,0.1819
3311856,0.0050,-0.9845,0.1635
3311866,0.0056,-0.9846,0.1544
3311877,0.0067,-0.9841,0.1371
3311893,0.0077,-0.9828,0.1216
3311909,0.0083,-0.9811,0.1083
3311962,0.0093,-0.9774,0.0839
3311981,0.0093,-0.9773,0.0806
3311991,0.0093,-0.9777,0.0795
3312006,0.0092,-0.9780,0.0795
3312022,0.0089,-0.9791,0.0808
3312038,0.0087,-0.9806,0.0835
3312056,0.0084,-0.9821,0.0889
3312072,0.0082,-0.9834,0.0909
3312083,0.0078,-0.9847,0.0951
3312099,0.0077,-0.9857,0.0992
3312148,0.0072,-0.9871,0.1090
3312189,0.0072,-0.9866,0.1129
3312199,0.0073,-0.9863,0.1133
3312215,0.0073,-0.9858,0.1135
3312230,0.0074,-0.9855,0.1135
3312246,0.0076,-0.9850,0.1132
3312264,0.0076,-0.9847,0.1127
3312280,0.0077,-0.9845,0.1119
3312294,0.0077,-0.9844,0.1116
3312310,0.0077,-0.9843,0.1107
3312347,0.0078,-0.9844,0.1088
3312363,0.0079,-0.9846,0.1082
3312379,0.0079,-0.9849,0.1075
3312389,0.0079,-0.9850,0.1073
3312415,0.0079,-0.9852,0.1067
3312424,0.0079,-0.9854,0.1066
3312440,0.0079,-0.9856,0.1063
3312453,0.0079,-0.9857,0.1063
3312487,0.0079,-0.9857,0.1066
3312497,0.0079,-0.9857,0.1067
3312533,0.0081,-0.9856,0.1073
3312549,0.0081,-0.9856,0.1077
3312565,0.0079,-0.9855,0.1078
3312583,0.0079,-0.9854,0.1080
3312598,0.0079,-0.9852,0.1082
3312614,0.0079,-0.9852,0.1082
3312630,0.0079,-0.9851,0.1083
3312650,0.0079,-0.9851,0.1083
3312666,0.0079,-0.9851,0.1082
3312682,0.0079,-0.9852,0.1080
3312700,0.0079,-0.9852,0.1079
3312729,0.0079,-0.9854,0.1078
3312744,0.0079,-0.9855,0.1077
3312760,0.0079,-0.9855,0.1077
3312795,0.0081,-0.9858,0.1067
3312805,0.0083,-0.9880,0.1039
3312821,0.0090,-0.9944,0.0959
3312836,0.0096,-0.9996,0.0890
3312852,0.0112,-1.0135,0.0668
3312870,0.0154,-1.0348,0.0103
3312886,0.0172,-1.0389,-0.0419
3312905,0.0237,-1.0394,-0.1025
3312921,0.0283,-1.0336,-0.1681
3312977,0.0405,-1.0103,-0.3798
3312997,0.0421,-1.0042,-0.4222
3313007,0.0425,-1.0018,-0.4395
3313023,0.0427,-0.9993,-0.4655
3313039,0.0421,-0.9989,-0.4811
3313055,0.0408,-1.0004,-0.4874
3313096,0.0360,-1.0078,-0.4736
3313107,0.0349,-1.0095,-0.4678
3313123,0.0331,-1.0122,-0.4546
3313172,0.0287,-0.9972,-0.3845
3313188,0.0258,-0.9817,-0.3361
3313206,0.0210,-0.9631,-0.2670
3313222,0.0146,-0.9449,-0.1755
3313236,0.0071,-0.9303,-0.0643
3313253,-0.0010,-0.9215,0.0612
3313271,-0.0088,-0.9193,0.1934
3313287,-0.0160,-0.9230,0.3242
3313303,-0.0221,-0.9310,0.4456
3313313,-0.0247,-0.9360,0.5005
3313329,-0.0287,-0.9468,0.5955
3313358,-0.0330,-0.9653,0.7148
3313397,-0.0338,-0.9728,0.7322
3313407,-0.0334,-0.9716,0.7208
3313423,-0.0323,-0.9668,0.6876
3313439,-0.0304,-0.9603,0.6444
3313455,-0.0275,-0.9535,0.5959
3313473,-0.0238,-0.9473,0.5461
3313489,-0.0197,-0.9419,0.4984
3313504,-0.0154,-0.9380,0.4547
3313515,-0.0133,-0.9366,0.4351
3313531,-0.0094,-0.9355,0.4001
3313560,-0.0045,-0.9387,0.3485
3313576,-0.0020,-0.9406,0.3390
3313592,0.0001,-0.9449,0.3235
3313602,0.0018,-0.9498,0.3113
3313617,0.0024,-0.9523,0.3063
3313633,0.0033,-0.9573,0.2972
3313649,0.0037,-0.9625,0.2888
3313667,0.0040,-0.9714,0.2737
3313702,0.0050,-0.9834,0.2440
3313720,0.0056,-0.9875,0.2249
3313751,0.0071,-0.9891,0.1809
3313765,0.0074,-0.9880,0.1696
3313781,0.0082,-0.9847,0.1475
3313791,0.0089,-0.9807,0.1272
3313806,0.0092,-0.9786,0.1180
3313822,0.0096,-0.9749,0.1022
3313838,0.0100,-0.9719,0.0896
3313856,0.0104,-0.9698,0.0774
3313872,0.0107,-0.9698,0.0751
3313888,0.0109,-0.9706,0.0729
3313904,0.0106,-0.9722,0.0735
3313960,0.0089,-0.9813,0.0892
3314004,0.0084,-0.9874,0.1055
3314014,0.0085,-0.9880,0.1077
3314030,0.0089,-0.9888,0.1112
3314046,0.0093,-0.9890,0.1139
3314061,0.0095,-0.9890,0.1147
3314079,0.0103,-0.9885,0.1162
3314095,0.0106,-0.9879,0.1162
3314110,0.0109,-0.9875,0.1160
3314131,0.0111,-0.9865,0.1144
3314176,0.0105,-0.9850,0.1110
3314192,0.0100,-0.9847,0.1097
3314202,0.0095,-0.9847,0.1086
3314217,0.0094,-0.9849,0.1083
3314233,0.0094,-0.9850,0.1079
3314248,0.0098,-0.9852,0.1082
3314266,0.0105,-0.9855,0.1089
3314308,0.0131,-0.9852,0.1102
3314324,0.0140,-0.9850,0.1101
3314357,0.0153,-0.9841,0.1079
3314373,0.0150,-0.9839,0.1073
3314389,0.0143,-0.9838,0.1063
3314399,0.0131,-0.9838,0.1056
3314414,0.0123,-0.9838,0.1055
3314432,0.0101,-0.9840,0.1058
3314441,0.0095,-0.9841,0.1063
3314457,0.0083,-0.9845,0.1074
3314470,0.0078,-0.9846,0.1080
3314486,0.0070,-0.9849,0.1093
3314502,0.0066,-0.9851,0.1105
3314518,0.0066,-0.9854,0.1113
3314528,0.0067,-0.9854,0.1117
3314538,0.0070,-0.9855,0.1119
3314554,0.0076,-0.9855,0.1119
3314570,0.0083,-0.9856,0.1118
3314609,0.0104,-0.9856,0.1107
3314640,0.0115,-0.9855,0.1099
3314656,0.0118,-0.9855,0.1094
3314672,0.0121,-0.9854,0.1091
3314682,0.0121,-0.9854,0.1090
3314698,0.0122,-0.9854,0.1088
3314714,0.0121,-0.9852,0.1086
3314730,0.0120,-0.9852,0.1085
3314740,0.0120,-0.9852,0.1085
3314771,0.0118,-0.9857,0.1078
3314786,0.0128,-0.9880,0.1053
3314802,0.0160,-0.9945,0.0984
3314815,0.0188,-0.9998,0.0922
3314831,0.0278,-1.0132,0.0721
3314847,0.0416,-1.0269,0.0405
3314863,0.0594,-1.0354,-0.0032
3314873,0.0697,-1.0369,-0.0291
3314912,0.1267,-1.0261,-0.1824
3314928,0.1488,-1.0199,-0.2450
3314938,0.1589,-1.0170,-0.2747
3314949,0.1765,-1.0116,-0.3289
3314965,0.1838,-1.0094,-0.3528
3314981,0.1951,-1.0066,-0.3934
3315036,0.2034,-1.0101,-0.4554
3315051,0.1998,-1.0127,-0.4537
3315061,0.1976,-1.0143,-0.4506
3315077,0.1926,-1.0181,-0.4403
3315093,0.1865,-1.0210,-0.4260
3315109,0.1788,-1.0204,-0.4084
3315127,0.1680,-1.0143,-0.3854
3315143,0.1522,-1.0012,-0.3521
3315153,0.1420,-0.9924,-0.3298
3315169,0.1171,-0.9727,-0.2719
3315185,0.0868,-0.9520,-0.1930
3315254,-0.0713,-0.9154,0.3287
3315264,-0.0851,-0.9193,0.3873
3315278,-0.1073,-0.9302,0.4940
3315295,-0.1213,-0.9430,0.5826
3315310,-0.1251,-0.9493,0.6190
3315328,-0.1240,-0.9655,0.6937
3315343,-0.1200,-0.9695,0.7072
3315353,-0.1077,-0.9746,0.7179
3315369,-0.0916,-0.9758,0.7096
3315384,-0.0825,-0.9751,0.6993
3315415,-0.0457,-0.9655,0.6296
3315431,-0.0291,-0.9584,0.5847
3315447,-0.0149,-0.9513,0.5380
3315457,-0.0088,-0.9481,0.5150
3315473,0.0007,-0.9430,0.4712
3315489,0.0072,-0.9397,0.4315
3315521,0.0116,-0.9398,0.3685
3315531,0.0114,-0.9410,0.3562
3315547,0.0099,-0.9440,0.3353
3315563,0.0076,-0.9473,0.3188
3315579,0.0049,-0.9508,0.3058
3315617,-0.0006,-0.9624,0.2778
3315633,-0.0016,-0.9685,0.2646
3315649,-0.0016,-0.9746,0.2489
3315659,-0.0011,-0.9773,0.2400
3315675,0.0004,-0.9817,0.2202
3315691,0.0024,-0.9840,0.1985
3315707,0.0046,-0.9841,0.1758
3315725,0.0068,-0.9827,0.1534
3315741,0.0090,-0.9805,0.1326
3315759,0.0109,-0.9778,0.1140
3315775,0.0125,-0.9755,0.0984
3315813,0.0146,-0.9729,0.0739
3315854,0.0146,-0.9756,0.0680
3315864,0.0144,-0.9766,0.0686
3315880,0.0140,-0.9789,0.0713
3315896,0.0134,-0.9812,0.0753
3315912,0.0128,-0.9834,0.0803
3315932,0.0123,-0.9852,0.0859
3315948,0.0118,-0.9868,0.0916
3315967,0.0114,-0.9879,0.0969
3315983,0.0110,-0.9884,0.1017
3316030,0.0109,-0.9880,0.1111
3316046,0.0110,-0.9874,0.1125
3316056,0.0110,-0.9871,0.1130
3316071,0.0112,-0.9863,0.1134
3316087,0.0114,-0.9857,0.1132
3316103,0.0115,-0.9851,0.1124
3316121,0.0116,-0.9847,0.1113
3316152,0.0117,-0.9843,0.1088
3316174,0.0117,-0.9844,0.1068
3316217,0.0116,-0.9849,0.1045
3316233,0.0115,-0.9852,0.1039
3316251,0.0114,-0.9855,0.1036
3316267,0.0114,-0.9856,0.1035
3316282,0.0114,-0.9858,0.1036
3316299,0.0114,-0.9860,0.1040
3316317,0.0114,-0.9860,0.1044
3316333,0.0114,-0.9860,0.1049
3316349,0.0114,-0.9860,0.1053
3316365,0.0115,-0.9858,0.1057
3316375,0.0115,-0.9858,0.1058
3316406,0.0116,-0.9857,0.1062
3316422,0.0116,-0.9856,0.1062
3316466,0.0120,-0.9854,0.1060
3316479,0.0121,-0.9854,0.1060
3316495,0.0122,-0.9852,0.1058
3316511,0.0123,-0.9852,0.1057
3316526,0.0123,-0.9852,0.1056
3316536,0.0123,-0.9854,0.1055
3316552,0.0123,-0.9854,0.1055
3316567,0.0123,-0.9854,0.1053
3316584,0.0123,-0.9854,0.1053
3316622,0.0120,-0.9855,0.1052
3316638,0.0118,-0.9861,0.1045
3316654,0.0118,-0.9896,0.1010
3316664,0.0118,-0.9934,0.0972
3316680,0.0123,-1.0052,0.0829
3316696,0.0133,-1.0204,0.0575
3316712,0.0153,-1.0327,0.0198
3316730,0.0181,-1.0378,-0.0304
3316761,0.0262,-1.0306,-0.1584
3316779,0.0308,-1.0234,-0.2275
3316817,0.0414,-1.0057,-0.3821
3316833,0.0449,-1.0016,-0.4287
3316849,0.0480,-0.9999,-0.4641
3316859,0.0491,-0.9998,-0.4774
3316875,0.0510,-1.0009,-0.4957
3316891,0.0519,-1.0033,-0.5039
3316907,0.0518,-1.0068,-0.5038
3316925,0.0504,-1.0116,-0.4974
3316941,0.0479,-1.0177,-0.4871
3316957,0.0442,-1.0248,-0.4745
3316973,0.0400,-1.0305,-0.4607
3316984,0.0378,-1.0326,-0.4540
3317034,0.0281,-1.0327,-0.4182
3317066,0.0256,-1.0139,-0.3782
3317076,0.0250,-1.0054,-0.3607
3317089,0.0228,-0.9835,-0.3120
3317105,0.0193,-0.9585,-0.2411
3317121,0.0144,-0.9351,-0.1462
3317139,0.0082,-0.9170,-0.0302
3317155,0.0010,-0.9058,0.1010
3317171,-0.0068,-0.9021,0.2385
3317189,-0.0148,-0.9054,0.3738
3317239,-0.0343,-0.9375,0.6925
3317255,-0.0383,-0.9481,0.7540
3317272,-0.0405,-0.9562,0.7906
3317288,-0.0411,-0.9609,0.8040
3317304,-0.0402,-0.9625,0.7969
3317320,-0.0382,-0.9611,0.7732
3317338,-0.0354,-0.9574,0.7373
3317372,-0.0286,-0.9467,0.6458
3317390,-0.0228,-0.9393,0.5736
3317421,-0.0173,-0.9353,0.5073
3317437,-0.0139,-0.9348,0.4688
3317453,-0.0110,-0.9358,0.4349
3317463,-0.0095,-0.9679,0.4059
3317479,-0.0071,-0.9390,0.3929
3317495,-0.0050,-0.9417,0.3701
3317511,-0.0033,-0.9443,0.3505
3317529,-0.0015,-0.9481,0.3251
3317545,-0.0010,-0.9492,0.2861
3317561,-0.0002,-0.9510,0.3030
3317577,0.0005,-0.9530,0.2893
3317592,0.0011,-0.9557,0.2756
3317625,0.0026,-0.9640,0.2456
3317641,0.0035,-0.9692,0.2281
3317673,0.0057,-0.9790,0.1893
3317683,0.0062,-0.9807,0.1792
3317699,0.0073,-0.9829,0.1591
3317715,0.0083,-0.9836,0.1398
3317731,0.0092,-0.9833,0.1222
3317749,0.0100,-0.9823,0.1069
3317765,0.0106,-0.9810,0.0944
3317780,0.0112,-0.9797,0.0848
3317795,0.0116,-0.9789,0.0781
3317805,0.0117,-0.9788,0.0758
3317836,0.0118,-0.9790,0.0728
3317852,0.0118,-0.9799,0.0742
3317868,0.0116,-0.9810,0.0773
3317878,0.0115,-0.9817,0.0792
3317894,0.0112,-0.9829,0.0836
3317910,0.0110,-0.9843,0.0885
3317926,0.0107,-0.9854,0.0934
3317944,0.0105,-0.9863,0.0980
3317975,0.0100,-0.9873,0.1055
3317989,0.0099,-0.9874,0.1080
3318060,0.0098,-0.9863,0.1104
3318070,0.0098,-0.9862,0.1099
3318085,0.0098,-0.9858,0.1088
3318099,0.0099,-0.9855,0.1074
3318115,0.0099,-0.9852,0.1061
3318135,0.0100,-0.9851,0.1049
3318151,0.0100,-0.9850,0.1038
3318167,0.0100,-0.9851,0.1030
3318183,0.0101,-0.9851,0.1025
3318201,0.0101,-0.9854,0.1023
3318215,0.0101,-0.9855,0.1023
3318231,0.0101,-0.9857,0.1024
3318247,0.0101,-0.9858,0.1027
3318281,0.0101,-0.9861,0.1033
3318324,0.0101,-0.9861,0.1040
3318340,0.0101,-0.9861,0.1042
3318358,0.0100,-0.9861,0.1044
3318374,0.0101,-0.9860,0.1044
3318390,0.0101,-0.9860,0.1044
3318406,0.0101,-0.9858,0.1044
3318416,0.0101,-0.9857,0.1042
3318447,0.0103,-0.9857,0.1041
3318463,0.0104,-0.9856,0.1040
3318481,0.0104,-0.9856,0.1039
3318494,0.0104,-0.9856,0.1038
3318510,0.0104,-0.9856,0.1038
3318526,0.0105,-0.9855,0.1038
3318542,0.0105,-0.9855,0.1036
3318552,0.0105,-0.9855,0.1036
3318584,0.0104,-0.9856,0.1036
3318600,0.0104,-0.9856,0.1036
3318615,0.0103,-0.9857,0.1036
3318649,0.0103,-0.9858,0.1036
3318665,0.0103,-0.9858,0.1036
3318681,0.0103,-0.9860,0.1036
3318691,0.0103,-0.9860,0.1034
3318707,0.0103,-0.9872,0.1021
3318723,0.0104,-0.9921,0.0970
3318739,0.0105,-1.0027,0.0846
3318757,0.0107,-1.0178,0.0612
3318773,0.0117,-1.0327,0.0244
3318788,0.0133,-1.0419,-0.0256
3318805,0.0160,-1.0433,-0.0873
3318823,0.0195,-1.0388,-0.1565
3318833,0.0216,-1.0352,-0.1926
3318849,0.0259,-1.0267,-0.2649
3318888,0.0356,-1.0071,-0.4229
3318919,0.0400,-0.9998,-0.5055
3318935,0.0410,-0.9988,-0.5293
3318951,0.0414,-0.9991,-0.5421
3318961,0.0414,-0.9999,-0.5448
3318977,0.0411,-1.0028,-0.5438
3318993,0.0406,-1.0076,-0.5364
3319009,0.0402,-1.0127,-0.5244
3319027,0.0399,-1.0166,-0.5095
3319038,0.0400,-1.0173,-0.5012
3319054,0.0404,-1.0157,-0.4821
3319070,0.0406,-1.0094,-0.4567
3319125,0.0272,-0.9542,-0.2533
3319140,0.0188,-0.9364,-0.1493
3319153,0.0142,-0.9292,-0.0900
3319195,-0.0110,-0.9164,0.2469
3319213,-0.0253,-0.9259,0.4448
3319229,-0.0297,-0.9308,0.5355
3319240,-0.0375,-0.9410,0.6088
3319256,-0.0436,-0.9504,0.6906
3319307,-0.0499,-0.9636,0.7882
3319322,-0.0477,-0.9629,0.7759
3319340,-0.0436,-0.9606,0.7463
3319356,-0.0377,-0.9574,0.7042
3319372,-0.0311,-0.9539,0.6541
3319388,-0.0245,-0.9504,0.5999
3319406,-0.0182,-0.9474,0.5454
3319422,-0.0127,-0.9449,0.4938
3319440,-0.0081,-0.9430,0.4475
3319456,-0.0044,-0.9418,0.4080
3319518,0.0005,-0.9453,0.3168
3319536,-0.0001,-0.9482,0.3059
3319552,-0.0009,-0.9514,0.2970
3319568,-0.0013,-0.9545,0.2891
3319584,-0.0016,-0.9574,0.2814
3319602,-0.0015,-0.9603,0.2728
3319618,-0.0010,-0.9637,0.2625
3319634,-0.0001,-0.9677,0.2498
3319650,0.0010,-0.9718,0.2344
3319688,0.0040,-0.9788,0.1978
3319704,0.0056,-0.9807,0.1777
3319720,0.0072,-0.9812,0.1581
3319730,0.0079,-0.9811,0.1486
3319746,0.0092,-0.9805,0.1307
3319762,0.0103,-0.9795,0.1150
3319803,0.0115,-0.9777,0.0865
3319813,0.0116,-0.9777,0.0796
3319830,0.0116,-0.9781,0.0751
3319848,0.0115,-0.9790,0.0728
3319864,0.0114,-0.9803,0.0724
3319902,0.0110,-0.9833,0.0770
3319918,0.0107,-0.9847,0.0813
3319934,0.0106,-0.9860,0.0863
3319944,0.0105,-0.9868,0.0917
3319960,0.0103,-0.9872,0.0944
3319976,0.0100,-0.9877,0.0995
3319992,0.0099,-0.9878,0.1040
3320010,0.0098,-0.9875,0.1089
3320026,0.0096,-0.9874,0.1108
3320042,0.0096,-0.9869,0.1113
3320056,0.0096,-0.9866,0.1116
3320111,0.0096,-0.9852,0.1082
3320152,0.0098,-0.9850,0.1050
3320162,0.0098,-0.9850,0.1045
3320178,0.0098,-0.9850,0.1038
3320194,0.0098,-0.9851,0.1033
3320210,0.0098,-0.9852,0.1030
3320230,0.0098,-0.9852,0.1030
3320246,0.0098,-0.9854,0.1033
3320257,0.0099,-0.9855,0.1036
3320272,0.0099,-0.9855,0.1038
3320323,0.0100,-0.9856,0.1049
3320337,0.0100,-0.9856,0.1050
3320355,0.0100,-0.9857,0.1053
3320371,0.0100,-0.9857,0.1053
3320387,0.0101,-0.9857,0.1055
3320403,0.0101,-0.9857,0.1055
3320421,0.0103,-0.9857,0.1055
3320456,0.0103,-0.9857,0.1052
3320466,0.0103,-0.9857,0.1052
3320514,0.0103,-0.9857,0.1049
3320523,0.0103,-0.9857,0.1049
3320539,0.0103,-0.9857,0.1047
3320552,0.0101,-0.9856,0.1046
3320568,0.0101,-0.9856,0.1045
3320584,0.0100,-0.9857,0.1042
3320600,0.0100,-0.9866,0.1031
3320610,0.0101,-0.9902,0.0992
3320625,0.0103,-0.9940,0.0951
3320641,0.0107,-1.0063,0.0801
3320658,0.0116,-1.0226,0.0533
3320669,0.0133,-1.0370,0.0135
3320700,0.0197,-1.0419,-0.1012
3320716,0.0216,-1.0386,-0.1702
3320755,0.0312,-1.0188,-0.3105
3320765,0.0327,-1.0155,-0.3433
3320781,0.0352,-1.0094,-0.4027
3320797,0.0370,-1.0035,-0.4523
3320813,0.0381,-0.9990,-0.4902
3320829,0.0387,-0.9969,-0.5165
3320846,0.0388,-0.9977,-0.5316
3320862,0.0383,-1.0009,-0.5375
3320872,0.0381,-1.0029,-0.5352
3320888,0.0376,-1.0071,-0.5316
3320919,0.0375,-1.0133,-0.5068
3320935,0.0380,-1.0161,-0.4908
3320951,0.0383,-1.0181,-0.4734
3320961,0.0385,-1.0181,-0.4637
3320977,0.0382,-1.0145,-0.4404
3320993,0.0367,-1.0050,-0.4082
3321009,0.0337,-0.9894,-0.3625
3321027,0.0289,-0.9688,-0.2991
3321059,0.0148,-0.9270,-0.1110
3321078,0.0009,-0.9113,0.0753
3321125,-0.0222,-0.9260,0.4039
3321141,-0.0292,-0.9392,0.5176
3321151,-0.0320,-0.9457,0.5674
3321166,-0.0361,-0.9576,0.6504
3321182,-0.0386,-0.9669,0.7101
3321198,-0.0394,-0.9727,0.7463
3321216,-0.0387,-0.9745,0.7610
3321232,-0.0369,-0.9728,0.7570
3321248,-0.0344,-0.9683,0.7379
3321264,-0.0319,-0.9619,0.7078
3321320,-0.0232,-0.9402,0.5652
3321362,-0.0154,-0.9320,0.4689
3321372,-0.0138,-0.9313,0.4521
3321388,-0.0112,-0.9305,0.4218
3321404,-0.0089,-0.9309,0.3955
3321420,-0.0071,-0.9321,0.3732
3321438,-0.0055,-0.9343,0.3545
3321454,-0.0040,-0.9376,0.3385
3321470,-0.0028,-0.9424,0.3243
3321488,-0.0017,-0.9479,0.3110
3321526,0.0007,-0.9637,0.2772
3321542,0.0020,-0.9703,0.2618
3321558,0.0033,-0.9766,0.2450
3321568,0.0039,-0.9795,0.2358
3321584,0.0054,-0.9844,0.2166
3321600,0.0067,-0.9875,0.1962
3321616,0.0079,-0.9888,0.1753
3321634,0.0090,-0.9878,0.1548
3321668,0.0109,-0.9823,0.1183
3321684,0.0116,-0.9792,0.1035
3321694,0.0118,-0.9764,0.0917
3321725,0.0125,-0.9739,0.0795
3321741,0.0127,-0.9734,0.0748
3321757,0.0127,-0.9739,0.0726
3321767,0.0126,-0.9745,0.0725
3321783,0.0125,-0.9761,0.0735
3321799,0.0122,-0.9781,0.0762
3321815,0.0120,-0.9803,0.0801
3321831,0.0117,-0.9825,0.0846
3321848,0.0115,-0.9846,0.0895
3321864,0.0112,-0.9863,0.0944
3321880,0.0110,-0.9875,0.0988
3321921,0.0106,-0.9888,0.1072
3321937,0.0105,-0.9885,0.1091
3321971,0.0105,-0.9875,0.1110
3321981,0.0105,-0.9872,0.1110
3321997,0.0105,-0.9866,0.1105
3322013,0.0105,-0.9860,0.1096
3322029,0.0106,-0.9855,0.1085
3322047,0.0106,-0.9851,0.1072
3322063,0.0106,-0.9849,0.1058
3322079,0.0107,-0.9847,0.1045
3322095,0.0109,-0.9847,0.1033
3322109,0.0109,-0.9849,0.1024
3322157,0.0110,-0.9855,0.1014
3322175,0.0109,-0.9856,0.1016
3322185,0.0109,-0.9857,0.1017
3322201,0.0109,-0.9858,0.1021
3322217,0.0109,-0.9860,0.1025
3322233,0.0107,-0.9861,0.1030
3322274,0.0107,-0.9861,0.1039
3322290,0.0107,-0.9860,0.1041
3322308,0.0107,-0.9860,0.1042
3322354,0.0109,-0.9857,0.1042
3322369,0.0109,-0.9857,0.1042
3322379,0.0110,-0.9857,0.1042
3322395,0.0110,-0.9857,0.1041
3322411,0.0109,-0.9856,0.1041
3322427,0.0109,-0.9857,0.1040
3322445,0.0109,-0.9857,0.1040
3322461,0.0109,-0.9857,0.1039
3322477,0.0107,-0.9857,0.1039
3322493,0.0107,-0.9858,0.1039
3322544,0.0106,-0.9858,0.1034
3322576,0.0105,-0.9917,0.0964
3322589,0.0105,-0.9962,0.0914
3322605,0.0107,-1.0090,0.0746
3322621,0.0114,-1.0237,0.0465
3322637,0.0123,-1.0348,0.0063
3322647,0.0131,-1.0378,-0.0181
3322663,0.0146,-1.0386,-0.0741
3322677,0.0166,-1.0339,-0.1366
3322693,0.0188,-1.0264,-0.2014
3322711,0.0211,-1.0178,-0.2648
3322721,0.0222,-1.0137,-0.3230
3322737,0.0240,-1.0066,-0.3491
3322753,0.0253,-1.0021,-0.3945
3322769,0.0259,-0.9998,-0.4294
3322800,0.0258,-0.9990,-0.4670
3322816,0.0251,-1.0011,-0.4712
3322832,0.0240,-1.0046,-0.4677
3322842,0.0234,-1.0067,-0.4634
3322884,0.0214,-1.0052,-0.4150
3322900,0.0208,-0.9952,-0.3760
3322910,0.0204,-0.9882,-0.3500
3322928,0.0176,-0.9618,-0.2415
3322944,0.0144,-0.9446,-0.1436
3322959,0.0123,-0.9373,-0.0881
3322997,-0.0021,-0.9240,0.2217
3323013,-0.0089,-0.9293,0.3425
3323029,-0.0156,-0.9382,0.4503
3323039,-0.0188,-0.9431,0.4973
3323055,-0.0243,-0.9530,0.5756
3323071,-0.0283,-0.9618,0.6307
3323087,-0.0306,-0.9685,0.6628
3323105,-0.0311,-0.9727,0.6732
3323121,-0.0299,-0.9741,0.6644
3323133,-0.0273,-0.9731,0.6405
3323148,-0.0256,-0.9718,0.6240
3323240,-0.0046,-0.9514,0.3784
3323250,-0.0034,-0.9512,0.3635
3323266,-0.0016,-0.9512,0.3378
3323282,-0.0002,-0.9519,0.3174
3323298,0.0006,-0.9535,0.3011
3323316,0.0010,-0.9559,0.2877
3323334,0.0011,-0.9594,0.2754
3323350,0.0013,-0.9640,0.2628
3323365,0.0017,-0.9692,0.2489
3323419,0.0044,-0.9811,0.1954
3323435,0.0055,-0.9817,0.1749
3323445,0.0067,-0.9810,0.1543
3323460,0.0072,-0.9803,0.1444
3323491,0.0095,-0.9768,0.1093
3323509,0.0104,-0.9755,0.0953
3323525,0.0111,-0.9747,0.0841
3323535,0.0116,-0.9747,0.0758
3323551,0.0117,-0.9750,0.0726
3323567,0.0120,-0.9761,0.0686
3323598,0.0118,-0.9796,0.0684
3323614,0.0116,-0.9817,0.0715
3323630,0.0112,-0.9836,0.0762
3323640,0.0111,-0.9845,0.0789
3323656,0.0107,-0.9861,0.0850
3323672,0.0104,-0.9872,0.0912
3323689,0.0101,-0.9879,0.0970
3323707,0.0099,-0.9883,0.1024
3323723,0.0096,-0.9883,0.1068
3323745,0.0094,-0.9878,0.1116
3323761,0.0093,-0.9873,0.1133
3323821,0.0094,-0.9855,0.1121
3323839,0.0095,-0.9850,0.1094
3323854,0.0095,-0.9850,0.1084
3323870,0.0095,-0.9849,0.1063
3323886,0.0095,-0.9850,0.1044
3323904,0.0095,-0.9851,0.1025
3323920,0.0096,-0.9854,0.1010
3323936,0.0098,-0.9856,0.0996
3323946,0.0100,-0.9858,0.0985
3323962,0.0101,-0.9860,0.0978
3323993,0.0107,-0.9863,0.0973
3324009,0.0111,-0.9863,0.0973
3324025,0.0116,-0.9863,0.0978
3324035,0.0120,-0.9862,0.0981
3324051,0.0126,-0.9861,0.0991
3324067,0.0133,-0.9858,0.1003
3324099,0.0148,-0.9852,0.1031
3324109,0.0151,-0.9851,0.1038
3324125,0.0156,-0.9847,0.1046
3324141,0.0159,-0.9846,0.1051
3324152,0.0155,-0.9846,0.1050
3324207,0.0116,-0.9851,0.1042
3324221,0.0096,-0.9854,0.1047
3324231,0.0087,-0.9855,0.1051
3324247,0.0067,-0.9857,0.1061
3324263,0.0050,-0.9858,0.1072
3324279,0.0039,-0.9860,0.1082
3324297,0.0033,-0.9860,0.1088
3324313,0.0034,-0.9860,0.1089
3324329,0.0042,-0.9860,0.1085
3324345,0.0052,-0.9858,0.1078
3324355,0.0059,-0.9858,0.1074
3324397,0.0092,-0.9857,0.1051
3324428,0.0110,-0.9857,0.1040
3324441,0.0115,-0.9857,0.1036
3324456,0.0118,-0.9858,0.1035
3324470,0.0120,-0.9858,0.1034
3324486,0.0118,-0.9858,0.1034
3324502,0.0117,-0.9858,0.1034
3324519,0.0116,-0.9858,0.1033
3324535,0.0118,-0.9862,0.1025
3324561,0.0161,-0.9906,0.0970
3324596,0.0514,-1.0198,0.0526
3324612,0.0770,-1.0320,0.0175
3324627,0.0917,-1.0355,-0.0034
3324637,0.1235,-1.0371,-0.0513
3324652,0.1403,-1.0359,-0.0774
3324668,0.1749,-1.0319,-0.1318
3324684,0.2094,-1.0281,-0.1858
3324702,0.2566,-1.0228,-0.2582
3324739,0.3030,-1.0110,-0.3254
3324755,0.3177,-1.0037,-0.3442
3324765,0.3230,-1.0001,-0.3497
3324775,0.3267,-0.9963,-0.3524
3324791,0.3296,-0.9878,-0.3490
3324807,0.3264,-0.9764,-0.3317
3324823,0.3158,-0.9617,-0.2975
3324854,0.2638,-0.9308,-0.1678
3324868,0.2213,-0.9218,-0.0724
3324885,0.1699,-0.9202,0.0385
3324895,0.1420,-0.9220,0.0974
3324911,0.0846,-0.9296,0.2168
3324927,0.0289,-0.9402,0.3311
3324943,-0.0208,-0.9518,0.4326
3324961,-0.0615,-0.9624,0.5157
3324979,-0.0922,-0.9714,0.5764
3324995,-0.1128,-0.9785,0.6133
3325034,-0.1327,-0.9850,0.6071
3325065,-0.1327,-0.9761,0.5275
3325079,-0.1317,-0.9727,0.5023
3325094,-0.1290,-0.9658,0.4502
3325105,-0.1255,-0.9594,0.3992
3325120,-0.1234,-0.9564,0.3750
3325135,-0.1189,-0.9519,0.3309
3325151,-0.1140,-0.9490,0.2932
3325169,-0.1086,-0.9476,0.2627
3325188,-0.0992,-0.9495,0.2297
3325204,-0.0917,-0.9529,0.2146
3325219,-0.0873,-0.9553,0.2085
3325275,-0.0504,-0.9774,0.1750
3325293,-0.0388,-0.9829,0.1652
3325309,-0.0276,-0.9868,0.1547
3325340,-0.0077,-0.9894,0.1328
3325357,0.0001,-0.9886,0.1223
3325372,0.0065,-0.9871,0.1125
3325391,0.0114,-0.9854,0.1041
3325405,0.0150,-0.9835,0.0969
3325457,0.0186,-0.9803,0.0850
3325472,0.0178,-0.9802,0.0844
3325490,0.0164,-0.9806,0.0854
3325506,0.0143,-0.9813,0.0879
3325522,0.0118,-0.9822,0.0914
3325538,0.0092,-0.9830,0.0957
3325558,0.0052,-0.9844,0.1024
3325574,0.0029,-0.9850,0.1067
3325592,0.0011,-0.9855,0.1104
3325608,-0.0004,-0.9858,0.1132
3325639,-0.0016,-0.9860,0.1162
3325680,-0.0006,-0.9856,0.1151
3325690,-0.0001,-0.9855,0.1145
3325706,0.0007,-0.9852,0.1129
3325720,0.0012,-0.9852,0.1121
3325733,0.0022,-0.9850,0.1104
3325749,0.0029,-0.9847,0.1088
3325766,0.0037,-0.9846,0.1074
3325780,0.0040,-0.9846,0.1066
3325802,0.0042,-0.9845,0.1061
3325833,0.0040,-0.9846,0.1061
3325847,0.0038,-0.9846,0.1064
3325863,0.0034,-0.9847,0.1069
3325872,0.0033,-0.9847,0.1072
3325889,0.0031,-0.9849,0.1078
3325905,0.0028,-0.9849,0.1083
3325921,0.0026,-0.9850,0.1088
3325939,0.0024,-0.9851,0.1093
3325981,0.0023,-0.9851,0.1096
3325997,0.0023,-0.9851,0.1096
3326030,0.0026,-0.9851,0.1094
3326046,0.0027,-0.9850,0.1093
3326062,0.0028,-0.9850,0.1090
3326072,0.0028,-0.9849,0.1090
3326088,0.0029,-0.9849,0.1089
3326103,0.0029,-0.9849,0.1088
3326117,0.0029,-0.9849,0.1086
3326135,0.0029,-0.9849,0.1086
3326149,0.0029,-0.9847,0.1085
3326164,0.0029,-0.9847,0.1085
3326180,0.0029,-0.9847,0.1085
3326196,0.0029,-0.9847,0.1085
3326216,0.0029,-0.9847,0.1085
3326232,0.0028,-0.9847,0.1085
3326247,0.0028,-0.9847,0.1085
3326325,0.0029,-0.9849,0.1086
3326335,0.0029,-0.9849,0.1086
3326351,0.0029,-0.9850,0.1086
3326365,0.0028,-0.9851,0.1086
3326380,0.0028,-0.9851,0.1086
3326398,0.0028,-0.9852,0.1086
3326417,0.0028,-0.9852,0.1086
3326433,0.0029,-0.9852,0.1088
3326448,0.0029,-0.9852,0.1088
3326498,0.0037,-0.9856,0.1079
3326514,0.0057,-0.9873,0.1055
3326532,0.0112,-0.9928,0.0994
3326548,0.0226,-1.0031,0.0865
3326597,0.0989,-1.0420,-0.0106
3326613,0.1335,-1.0430,-0.0603
3326624,0.1514,-1.0405,-0.0869
3326640,0.1870,-1.0326,-0.1415
3326656,0.2213,-1.0234,-0.1943
3326694,0.2910,-1.0038,-0.3004
3326710,0.3098,-0.9978,-0.3270
3326726,0.3234,-0.9941,-0.3433
3326736,0.3281,-0.9933,-0.3475
3326749,0.3345,-0.9938,-0.3490
3326764,0.3362,-0.9949,-0.3466
3326780,0.3373,-0.9984,-0.3367
3326798,0.3347,-1.0048,-0.3110
3326814,0.3331,-1.0074,-0.2874
3326824,0.3290,-1.0076,-0.2731
3326840,0.3237,-1.0038,-0.2383
3326856,0.3156,-0.9938,-0.1920
3326887,0.2919,-0.9711,-0.0951
3326921,0.2084,-0.9401,0.1418
3326931,0.1862,-0.9376,0.1963
3326947,0.1395,-0.9362,0.3062
3326963,0.0928,-0.9379,0.4109
3326979,0.0494,-0.9413,0.5046
3326996,0.0121,-0.9451,0.5825
3327012,-0.0175,-0.9485,0.6414
3327030,-0.0389,-0.9504,0.6797
3327046,-0.0531,-0.9507,0.6976
3327084,-0.0657,-0.9486,0.6797
3327100,-0.0685,-0.9469,0.6495
3327116,-0.0719,-0.9451,0.6095
3327126,-0.0741,-0.9441,0.5870
3327142,-0.0802,-0.9425,0.5394
3327158,-0.0874,-0.9418,0.4911
3327174,-0.0951,-0.9420,0.4448
3327192,-0.1027,-0.9437,0.3826
3327224,-0.1149,-0.9471,0.3320
3327235,-0.1169,-0.9510,0.3051
3327290,-0.0988,-0.9727,0.2427
3327308,-0.0778,-0.9855,0.2141
3327318,-0.0696,-0.9889,0.2043
3327334,-0.0525,-0.9935,0.1846
3327350,-0.0349,-0.9949,0.1644
3327366,-0.0181,-0.9933,0.1444
3327383,-0.0026,-0.9897,0.1255
3327399,0.0107,-0.9852,0.1084
3327415,0.0217,-0.9806,0.0935
3327431,0.0302,-0.9766,0.0814
3327442,0.0333,-0.9749,0.0764
3327485,0.0406,-0.9714,0.0630
3327524,0.0364,-0.9752,0.0660
3327533,0.0345,-0.9766,0.0681
3327548,0.0306,-0.9792,0.0734
3327563,0.0262,-0.9819,0.0793
3327577,0.0240,-0.9833,0.0825
3327594,0.0198,-0.9856,0.0889
3327609,0.0159,-0.9873,0.0950
3327625,0.0127,-0.9886,0.1003
3327643,0.0101,-0.9894,0.1047
3327681,0.0068,-0.9891,0.1112
3327697,0.0067,-0.9886,0.1119
3327713,0.0071,-0.9879,0.1117
3327726,0.0074,-0.9872,0.1107
3327742,0.0084,-0.9868,0.1101
3327758,0.0096,-0.9861,0.1084
3327774,0.0110,-0.9856,0.1064
3327784,0.0123,-0.9852,0.1044
3327800,0.0129,-0.9851,0.1024
3327839,0.0153,-0.9850,0.0992
3327876,0.0160,-0.9855,0.0977
3327890,0.0159,-0.9855,0.0977
3327906,0.0156,-0.9857,0.0979
3327916,0.0151,-0.9860,0.0985
3327931,0.0149,-0.9860,0.0989
3327947,0.0144,-0.9861,0.0997
3327963,0.0138,-0.9862,0.1006
3327981,0.0133,-0.9862,0.1017
3327997,0.0128,-0.9862,0.1021
3328013,0.0126,-0.9862,0.1024
3328029,0.0125,-0.9862,0.1028
3328047,0.0126,-0.9862,0.1028
3328057,0.0126,-0.9862,0.1028
3328073,0.0128,-0.9862,0.1025
3328089,0.0129,-0.9862,0.1024
3328105,0.0132,-0.9862,0.1022
3328159,0.0135,-0.9862,0.1017
3328177,0.0135,-0.9863,0.1016
3328193,0.0135,-0.9863,0.1016
3328209,0.0135,-0.9863,0.1014
3328225,0.0135,-0.9863,0.1014
3328243,0.0135,-0.9862,0.1014
3328262,0.0135,-0.9862,0.1016
3328278,0.0135,-0.9861,0.1016
3328294,0.0135,-0.9861,0.1017
3328352,0.0137,-0.9860,0.1018
3328367,0.0137,-0.9860,0.1018
3328376,0.0137,-0.9860,0.1018
3328391,0.0137,-0.9860,0.1017
3328407,0.0137,-0.9860,0.1017
3328438,0.0137,-0.9861,0.1017
3328448,0.0137,-0.9861,0.1017
3328466,0.0135,-0.9862,0.1017
3328482,0.0135,-0.9862,0.1017
3328498,0.0135,-0.9862,0.1017
3328549,0.0142,-0.9867,0.1006
3328565,0.0165,-0.9890,0.0977
3328582,0.0227,-0.9955,0.0902
3328608,0.0443,-1.0137,0.0648
3328617,0.0551,-1.0204,0.0516
3328633,0.0814,-1.0314,0.0177
3328653,0.1128,-1.0364,-0.0256
3328671,0.1475,-1.0320,-0.1030
3328687,0.1836,-1.0283,-0.1305
3328703,0.2196,-1.0200,-0.1852
3328734,0.2831,-1.0051,-0.2798
3328775,0.3345,-0.9958,-0.3490
3328785,0.3406,-0.9954,-0.3552
3328801,0.3486,-0.9960,-0.3605
3328817,0.3524,-0.9983,-0.3564
3328833,0.3530,-1.0017,-0.3445
3328854,0.3503,-1.0052,-0.3149
3328869,0.3466,-1.0048,-0.2886
3328880,0.3441,-1.0037,-0.2734
3328894,0.3384,-1.0000,-0.2388
3328934,0.3252,-0.9883,-0.1477
3328949,0.3164,-0.9805,-0.0894
3328965,0.3031,-0.9713,-0.0214
3328974,0.2939,-0.9663,0.0162
3328990,0.2697,-0.9564,0.0983
3329007,0.2378,-0.9480,0.1876
3329023,0.1998,-0.9415,0.2805
3329041,0.1270,-0.9348,0.4148
3329075,0.0549,-0.9326,0.5620
3329085,0.0364,-0.9332,0.5906
3329123,-0.0580,-0.9392,0.6760
3329139,-0.0505,-0.9408,0.6818
3329155,-0.0690,-0.9442,0.6831
3329165,-0.0823,-0.9482,0.6719
3329180,-0.0874,-0.9503,0.6622
3329196,-0.0953,-0.9543,0.6356
3329212,-0.1018,-0.9573,0.6011
3329230,-0.1080,-0.9587,0.5392
3329244,-0.1144,-0.9584,0.5171
3329259,-0.1207,-0.9567,0.4725
3329274,-0.1262,-0.9541,0.4294
3329333,-0.1270,-0.9492,0.3040
3329347,-0.1202,-0.9504,0.2756
3329383,-0.0980,-0.9564,0.2275
3329398,-0.0835,-0.9608,0.2068
3329414,-0.0676,-0.9656,0.1879
3329425,-0.0594,-0.9680,0.1791
3329441,-0.0435,-0.9724,0.1626
3329457,-0.0283,-0.9760,0.1476
3329473,-0.0149,-0.9788,0.1343
3329491,-0.0034,-0.9806,0.1227
3329502,0.0059,-0.9818,0.1129
3329517,0.0098,-0.9822,0.1088
3329533,0.0159,-0.9827,0.1016
3329549,0.0200,-0.9829,0.0959
3329592,0.0244,-0.9834,0.0865
3329607,0.0242,-0.9835,0.0859
3329625,0.0227,-0.9840,0.0858
3329640,0.0220,-0.9843,0.0863
3329656,0.0199,-0.9846,0.0880
3329688,0.0149,-0.9854,0.0940
3329698,0.0135,-0.9855,0.0958
3329708,0.0110,-0.9857,0.0996
3329724,0.0087,-0.9858,0.1031
3329739,0.0077,-0.9858,0.1049
3329755,0.0060,-0.9860,0.1077
3329786,0.0043,-0.9858,0.1111
3329802,0.0042,-0.9857,0.1117
3329818,0.0044,-0.9856,0.1116
3329828,0.0046,-0.9856,0.1113
3329844,0.0054,-0.9855,0.1105
3329860,0.0061,-0.9854,0.1096
3329876,0.0068,-0.9852,0.1085
3329894,0.0074,-0.9852,0.1075
3329916,0.0081,-0.9851,0.1063
3329932,0.0083,-0.9851,0.1057
3329948,0.0084,-0.9851,0.1053
3329982,0.0083,-0.9852,0.1052
3330017,0.0079,-0.9854,0.1056
3330027,0.0078,-0.9855,0.1058
3330043,0.0077,-0.9855,0.1061
3330059,0.0074,-0.9855,0.1063
3330075,0.0073,-0.9856,0.1066
3330093,0.0072,-0.9856,0.1069
3330109,0.0072,-0.9856,0.1071
3330119,0.0072,-0.9856,0.1072
3330135,0.0072,-0.9855,0.1072
3330151,0.0072,-0.9855,0.1072
3330182,0.0072,-0.9854,0.1072
3330198,0.0072,-0.9854,0.1071
3330214,0.0072,-0.9852,0.1069
3330224,0.0072,-0.9852,0.1068
3330240,0.0072,-0.9852,0.1068
3330256,0.0072,-0.9851,0.1067
3330272,0.0072,-0.9851,0.1067
3330290,0.0072,-0.9852,0.1067
3330321,0.0072,-0.9852,0.1067
3330332,0.0072,-0.9852,0.1067
3330347,0.0072,-0.9852,0.1067
3330394,0.0071,-0.9854,0.1069
3330408,0.0071,-0.9854,0.1071
3330425,0.0071,-0.9854,0.1071
3330441,0.0071,-0.9854,0.1072
3330457,0.0070,-0.9852,0.1072
3330473,0.0070,-0.9852,0.1072
3330491,0.0070,-0.9852,0.1072
3330507,0.0070,-0.9852,0.1072
3330523,0.0070,-0.9852,0.1072
3330533,0.0070,-0.9852,0.1072
3330549,0.0070,-0.9852,0.1072
3330592,0.0072,-0.9852,0.1071
3330633,0.0088,-0.9856,0.1050
3330646,0.0110,-0.9873,0.1017
3330662,0.0159,-0.9924,0.0950
3330678,0.0251,-1.0018,0.0826
3330694,0.0400,-1.0149,0.0625
3330704,0.0498,-1.0220,0.0490
3330720,0.0741,-1.0347,0.0149
3330738,0.1035,-1.0424,-0.0278
3330754,0.1364,-1.0430,-0.0775
3330793,0.2238,-1.0216,-0.2123
3330809,0.2570,-1.0123,-0.2616
3330825,0.2866,-1.0052,-0.3037
3330835,0.2998,-1.0024,-0.3215
3330851,0.3224,-0.9984,-0.3499
3330867,0.3397,-0.9963,-0.3679
3330883,0.3524,-0.9958,-0.3759
3330901,0.3612,-0.9972,-0.3744
3330940,0.3718,-1.0056,-0.3385
3330950,0.3730,-1.0077,-0.3274
3330988,0.3778,-1.0142,-0.2738
3330997,0.3802,-1.0144,-0.2435
3331013,0.3810,-1.0132,-0.2104
3331033,0.3809,-1.0024,-0.1725
3331049,0.3774,-0.9890,-0.1270
3331065,0.3688,-0.9712,-0.0713
3331081,0.3522,-0.9512,-0.0035
3331099,0.3254,-0.9321,0.0773
3331115,0.2885,-0.9182,0.1696
3331131,0.2427,-0.9116,0.2700
3331147,0.1910,-0.9124,0.3729
3331157,0.1643,-0.9149,0.4230
3331188,0.0621,-0.9332,0.5979
3331204,0.0203,-0.9430,0.6624
3331235,-0.0552,-0.9548,0.7345
3331245,-0.0397,-0.9557,0.7410
3331261,-0.0449,-0.9546,0.7416
3331277,-0.0415,-0.9512,0.7289
3331292,-0.0372,-0.9490,0.7184
3331310,-0.0195,-0.9418,0.6752
3331326,-0.0088,-0.9380,0.6393
3331341,-0.0052,-0.9366,0.6200
3331360,-0.0048,-0.9343,0.5590
3331415,-0.0450,-0.9358,0.4376
3331429,-0.0641,-0.9392,0.4015
3331439,-0.0735,-0.9415,0.3845
3331455,-0.0908,-0.9473,0.3528
3331471,-0.1046,-0.9539,0.3241
3331487,-0.1135,-0.9608,0.2981
3331505,-0.1169,-0.9672,0.2738
3331546,-0.1006,-0.9760,0.2190
3331564,-0.0782,-0.9757,0.1892
3331607,-0.0339,-0.9716,0.1465
3331623,-0.0177,-0.9702,0.1323
3331641,-0.0037,-0.9696,0.1202
3331657,0.0074,-0.9700,0.1102
3331673,0.0156,-0.9712,0.1023
3331689,0.0208,-0.9730,0.0963
3331707,0.0232,-0.9753,0.0923
3331723,0.0233,-0.9779,0.0901
3331739,0.0216,-0.9805,0.0896
3331755,0.0188,-0.9828,0.0903
3331765,0.0172,-0.9839,0.0912
3331796,0.0100,-0.9869,0.0966
3331812,0.0070,-0.9878,0.0999
3331837,0.0033,-0.9882,0.1050
3331847,0.0024,-0.9880,0.1066
3331863,0.0013,-0.9878,0.1095
3331879,0.0007,-0.9872,0.1121
3331895,0.0009,-0.9866,0.1139
3331913,0.0012,-0.9858,0.1152
3331928,0.0021,-0.9852,0.1160
3331941,0.0024,-0.9849,0.1161
3331957,0.0034,-0.9844,0.1160
3331971,0.0044,-0.9840,0.1154
3332002,0.0059,-0.9838,0.1134
3332018,0.0063,-0.9838,0.1122
3332034,0.0067,-0.9840,0.1110
3332044,0.0067,-0.9841,0.1105
3332060,0.0068,-0.9844,0.1095
3332076,0.0067,-0.9846,0.1089
3332092,0.0066,-0.9849,0.1084
3332112,0.0063,-0.9851,0.1084
3332160,0.0055,-0.9854,0.1090
3332170,0.0054,-0.9854,0.1093
3332201,0.0051,-0.9854,0.1100
3332217,0.0051,-0.9852,0.1104
3332233,0.0051,-0.9852,0.1105
3332243,0.0052,-0.9851,0.1106
3332259,0.0054,-0.9851,0.1107
3332275,0.0055,-0.9851,0.1107
3332291,0.0056,-0.9850,0.1107
3332309,0.0056,-0.9850,0.1106
3332325,0.0057,-0.9850,0.1105
3332341,0.0059,-0.9851,0.1101
3332357,0.0057,-0.9854,0.1093
3332415,0.0072,-1.0066,0.0778
3332456,0.0126,-1.0430,-0.0157
3332466,0.0143,-1.0459,-0.0425
3332482,0.0182,-1.0452,-0.1018
3332498,0.0226,-1.0383,-0.1660
3332514,0.0273,-1.0288,-0.2311
3332532,0.0317,-1.0194,-0.2936
3332548,0.0358,-1.0115,-0.3501
3332564,0.0391,-1.0052,-0.3982
3332582,0.0419,-1.0010,-0.4680
3332633,0.0483,-1.0011,-0.4934
3332651,0.0491,-1.0046,-0.4911
3332664,0.0492,-1.0065,-0.4879
3332680,0.0491,-1.0103,-0.4784
3332696,0.0486,-1.0139,-0.4659
3332712,0.0476,-1.0173,-0.4523
3332722,0.0469,-1.0190,-0.4388
3332764,0.0428,-1.0245,-0.4097
3332779,0.0424,-1.0234,-0.4042
3332812,0.0380,-1.0092,-0.3678
3332828,0.0333,-0.9957,-0.3320
3332844,0.0267,-0.9788,-0.2784
3332854,0.0186,-0.9597,-0.2040
3332870,0.0139,-0.9503,-0.1086
3332886,0.0042,-0.9341,-0.0540
3332902,-0.0059,-0.9231,0.0664
3332920,-0.0199,-0.9178,0.2598
3332936,-0.0282,-0.9213,0.3856
3332956,-0.0350,-0.9287,0.5006
3332972,-0.0402,-0.9377,0.5985
3332982,-0.0421,-0.9420,0.6398
3332992,-0.0437,-0.9459,0.6757
3333008,-0.0455,-0.9520,0.7303
3333024,-0.0463,-0.9557,0.7634
3333063,-0.0435,-0.9529,0.7662
3333094,-0.0378,-0.9419,0.7106
3333103,-0.0361,-0.9388,0.6920
3333119,-0.0323,-0.9335,0.6521
3333139,-0.0283,-0.9297,0.6106
3333155,-0.0245,-0.9280,0.5693
3333171,-0.0212,-0.9283,0.5298
3333187,-0.0186,-0.9308,0.4932
3333197,-0.0175,-0.9327,0.4761
3333228,-0.0133,-0.9429,0.4169
3333244,-0.0115,-0.9482,0.3925
3333260,-0.0099,-0.9529,0.3707
3333270,-0.0093,-0.9547,0.3608
3333286,-0.0084,-0.9573,0.3425
3333302,-0.0077,-0.9584,0.3259
3333318,-0.0072,-0.9586,0.3105
3333336,-0.0067,-0.9586,0.2957
3333367,-0.0055,-0.9589,0.2654
3333383,-0.0046,-0.9595,0.2501
3333453,-0.0004,-0.9686,0.1874
3333470,0.0015,-0.9735,0.1643
3333486,0.0021,-0.9750,0.1257
3333502,0.0032,-0.9774,0.1433
3333518,0.0043,-0.9794,0.1310
3333528,0.0051,-0.9806,0.1205
3333543,0.0055,-0.9811,0.1160
3333559,0.0061,-0.9817,0.1086
3333575,0.0066,-0.9819,0.1033
3333593,0.0068,-0.9822,0.0986
3333604,0.0070,-0.9823,0.0979
3333620,0.0070,-0.9824,0.0973
3333636,0.0068,-0.9827,0.0977
3333713,0.0059,-0.9843,0.1030
3333723,0.0059,-0.9845,0.1038
3333739,0.0056,-0.9849,0.1052
3333755,0.0055,-0.9851,0.1066
3333771,0.0054,-0.9852,0.1080
3333789,0.0054,-0.9854,0.1094
3333810,0.0052,-0.9854,0.1112
3333826,0.0054,-0.9852,0.1121
3333842,0.0054,-0.9850,0.1128
3333873,0.0054,-0.9847,0.1132
3333888,0.0054,-0.9846,0.1132
3333904,0.0054,-0.9845,0.1128
3333914,0.0055,-0.9844,0.1124
3333930,0.0055,-0.9844,0.1121
3333946,0.0055,-0.9844,0.1118
3333980,0.0055,-0.9846,0.1110
3333990,0.0055,-0.9846,0.1108
3334008,0.0055,-0.9847,0.1106
3334024,0.0055,-0.9849,0.1106
3334040,0.0055,-0.9850,0.1105
3334079,0.0054,-0.9851,0.1106
3334095,0.0054,-0.9850,0.1107
3334110,0.0054,-0.9850,0.1108
3334120,0.0054,-0.9850,0.1108
3334136,0.0052,-0.9849,0.1110
3334151,0.0052,-0.9849,0.1110
3334167,0.0052,-0.9847,0.1111
3334187,0.0054,-0.9846,0.1112
3334203,0.0054,-0.9845,0.1113
3334213,0.0054,-0.9845,0.1113
3334229,0.0055,-0.9845,0.1113
3334268,0.0056,-0.9860,0.1085
3334300,0.0070,-1.0020,0.0895
3334310,0.0074,-1.0094,0.0791
3334326,0.0092,-1.0261,0.0488
3334342,0.0117,-1.0398,0.0055
3334358,0.0151,-1.0450,-0.0499
3334376,0.0192,-1.0421,-0.1145
3334392,0.0234,-1.0345,-0.1840
3334408,0.0276,-1.0261,-0.2538
3334419,0.0295,-1.0221,-0.2877
3334475,0.0397,-0.9989,-0.4672
3334490,0.0413,-0.9967,-0.4937
3334500,0.0417,-0.9966,-0.5026
3334516,0.0425,-0.9980,-0.5127
3334532,0.0426,-1.0010,-0.5142
3334548,0.0428,-1.0045,-0.5085
3334566,0.0431,-1.0084,-0.4980
3334608,0.0450,-1.0192,-0.4630
3334626,0.0469,-1.0221,-0.4493
3334679,0.0536,-1.0145,-0.4022
3334688,0.0532,-1.0096,-0.3905
3334701,0.0521,-1.0034,-0.3757
3334717,0.0474,-0.9873,-0.3342
3334733,0.0394,-0.9674,-0.2729
3334749,0.0288,-0.9463,-0.1892
3334759,0.0228,-0.9364,-0.1393
3334775,0.0100,-0.9198,-0.0251
3334791,-0.0033,-0.9097,0.1024
3334807,-0.0164,-0.9075,0.2358
3334825,-0.0287,-0.9124,0.3671
3334835,-0.0394,-0.9219,0.4882
3334851,-0.0483,-0.9331,0.5928
3334866,-0.0519,-0.9387,0.6376
3334882,-0.0571,-0.9489,0.7104
3334937,-0.0540,-0.9611,0.7944
3334955,-0.0487,-0.9574,0.7782
3334971,-0.0425,-0.9520,0.7496
3334985,-0.0359,-0.9463,0.7123
3335000,-0.0295,-0.9413,0.6694
3335018,-0.0238,-0.9380,0.6240
3335036,-0.0190,-0.9363,0.5784
3335052,-0.0153,-0.9357,0.5348
3335068,-0.0125,-0.9358,0.4946
3335107,-0.0090,-0.9353,0.4147
3335123,-0.0088,-0.9349,0.3909
3335139,-0.0089,-0.9349,0.3711
3335149,-0.0090,-0.9352,0.3625
3335165,-0.0094,-0.9362,0.3475
3335181,-0.0098,-0.9384,0.3347
3335220,-0.0101,-0.9489,0.3071
3335233,-0.0100,-0.9514,0.3016
3335244,-0.0098,-0.9540,0.2961
3335260,-0.0089,-0.9595,0.2848
3335276,-0.0077,-0.9650,0.2725
3335315,-0.0033,-0.9789,0.2349
3335331,-0.0015,-0.9832,0.2172
3335347,0.0002,-0.9858,0.1986
3335357,0.0011,-0.9865,0.1891
3335373,0.0027,-0.9865,0.1700
3335389,0.0039,-0.9849,0.1517
3335405,0.0050,-0.9824,0.1349
3335423,0.0057,-0.9797,0.1201
3335439,0.0063,-0.9773,0.1078
3335450,0.0066,-0.9753,0.0980
3335466,0.0067,-0.9746,0.0627
3335521,0.0067,-0.9755,0.0837
3335565,0.0063,-0.9808,0.0928
3335575,0.0061,-0.9818,0.0951
3335591,0.0059,-0.9834,0.1000
3335607,0.0056,-0.9847,0.1049
3335622,0.0055,-0.9854,0.1072
3335640,0.0051,-0.9863,0.1133
3335651,0.0051,-0.9866,0.1151
3335667,0.0049,-0.9867,0.1179
3335683,0.0049,-0.9866,0.1199
3335733,0.0048,-0.9854,0.1207
3335748,0.0048,-0.9849,0.1199
3335765,0.0049,-0.9845,0.1187
3335779,0.0049,-0.9841,0.1174
3335794,0.0050,-0.9840,0.1167
3335810,0.0050,-0.9839,0.1155
3335826,0.0051,-0.9838,0.1145
3335861,0.0052,-0.9839,0.1128
3335875,0.0052,-0.9840,0.1127
3335913,0.0052,-0.9844,0.1128
3335929,0.0052,-0.9844,0.1130
3335945,0.0051,-0.9845,0.1133
3335955,0.0051,-0.9845,0.1135
3335971,0.0051,-0.9845,0.1138
3335986,0.0050,-0.9845,0.1140
3336002,0.0050,-0.9845,0.1143
3336018,0.0050,-0.9844,0.1145
3336032,0.0050,-0.9844,0.1145
3336047,0.0051,-0.9844,0.1146
3336062,0.0052,-0.9843,0.1146
3336073,0.0052,-0.9843,0.1145
3336103,0.0054,-0.9841,0.1144
3336118,0.0054,-0.9841,0.1143
3336134,0.0055,-0.9840,0.1141
3336167,0.0056,-0.9840,0.1140
3336183,0.0057,-0.9840,0.1140
3336199,0.0057,-0.9840,0.1140
3336209,0.0057,-0.9840,0.1140
3336225,0.0057,-0.9840,0.1140
3336241,0.0057,-0.9840,0.1141
3336257,0.0056,-0.9841,0.1141
3336300,0.0054,-0.9844,0.1140
3336316,0.0054,-0.9849,0.1132
3336332,0.0054,-0.9877,0.1100
3336342,0.0055,-0.9906,0.1064
3336358,0.0059,-1.0009,0.0935
3336374,0.0068,-1.0156,0.0698
3336390,0.0087,-1.0308,0.0333
3336408,0.0117,-1.0409,-0.0159
3336424,0.0156,-1.0433,-0.0757
3336440,0.0208,-1.0391,-0.1426
3336472,0.0322,-1.0236,-0.2805
3336522,0.0488,-1.0032,-0.4420
3336537,0.0533,-0.9994,-0.4747
3336554,0.0569,-0.9984,-0.4965
3336568,0.0593,-1.0000,-0.5079
3336583,0.0601,-1.0015,-0.5103
3336598,0.0608,-1.0054,-0.5098
3336608,0.0601,-1.0098,-0.5034
3336623,0.0592,-1.0121,-0.4987
3336639,0.0570,-1.0161,-0.4871
3336655,0.0544,-1.0199,-0.4742
3336673,0.0518,-1.0232,-0.4612
3336694,0.0479,-1.0269,-0.4430
3336703,0.0466,-1.0277,-0.4375
3336719,0.0439,-1.0294,-0.4272
3336771,0.0353,-1.0353,-0.3984
3336806,0.0289,-1.0253,-0.3459
3336816,0.0270,-1.0203,-0.3274
3336832,0.0215,-1.0065,-0.2787
3336848,0.0145,-0.9875,-0.2126
3336864,0.0063,-0.9661,-0.1292
3336879,0.0020,-0.9451,-0.0294
3336890,-0.0073,-0.9358,0.0258
3336903,-0.0120,-0.9279,0.0835
3336920,-0.0212,-0.9172,0.2042
3336934,-0.0300,-0.9139,0.3262
3336965,-0.0447,-0.9237,0.5465
3336981,-0.0499,-0.9323,0.6337
3336995,-0.0533,-0.9404,0.7009
3337005,-0.0544,-0.9440,0.7268
3337021,-0.0555,-0.9490,0.7635
3337037,-0.0555,-0.9512,0.7811
3337053,-0.0544,-0.9502,0.7819
3337066,-0.0537,-0.9489,0.7770
3337076,-0.0529,-0.9468,0.7692
3337108,-0.0476,-0.9359,0.7163
3337118,-0.0439,-0.9301,0.6825
3337134,-0.0420,-0.9275,0.6475
3337164,-0.0334,-0.9211,0.5966
3337180,-0.0294,-0.9209,0.5653
3337196,-0.0260,-0.9226,0.5367
3337206,-0.0245,-0.9241,0.5234
3337222,-0.0222,-0.9281,0.4987
3337236,-0.0205,-0.9329,0.4762
3337251,-0.0190,-0.9377,0.4552
3337268,-0.0176,-0.9420,0.4354
3337285,-0.0160,-0.9452,0.4166
3337299,-0.0143,-0.9473,0.3987
3337314,-0.0134,-0.9479,0.3900
3337324,-0.0117,-0.9487,0.3732
3337357,-0.0085,-0.9509,0.3405
3337371,-0.0078,-0.9519,0.3323
3337410,-0.0044,-0.9595,0.2899
3337420,-0.0038,-0.9615,0.2810
3337436,-0.0026,-0.9663,0.2626
3337452,-0.0012,-0.9714,0.2432
3337468,0.0001,-0.9763,0.2229
3337486,0.0016,-0.9802,0.2019
3337502,0.0031,-0.9824,0.1809
3337516,0.0044,-0.9829,0.1604
3337528,0.0050,-0.9827,0.1505
3337544,0.0062,-0.9813,0.1322
3337591,0.0085,-0.9761,0.0917
3337610,0.0089,-0.9751,0.0835
3337620,0.0090,-0.9750,0.0779
3337633,0.0092,-0.9751,0.0759
3337648,0.0092,-0.9761,0.0736
3337664,0.0092,-0.9775,0.0731
3337682,0.0090,-0.9794,0.0743
3337716,0.0087,-0.9834,0.0806
3337734,0.0084,-0.9860,0.0872
3337777,0.0081,-0.9883,0.0984
3337793,0.0078,-0.9885,0.1023
3337811,0.0077,-0.9884,0.1055
3337827,0.0076,-0.9882,0.1079
3337843,0.0074,-0.9877,0.1095
3337859,0.0074,-0.9871,0.1105
3337877,0.0073,-0.9865,0.1106
3337893,0.0073,-0.9860,0.1102
3337909,0.0072,-0.9855,0.1093
3337925,0.0072,-0.9852,0.1080
3337939,0.0072,-0.9851,0.1073
3337971,0.0072,-0.9849,0.1044
3337987,0.0072,-0.9850,0.1030
3338018,0.0073,-0.9852,0.1011
3338028,0.0074,-0.9852,0.1007
3338044,0.0074,-0.9854,0.1003
3338060,0.0076,-0.9855,0.1002
3338076,0.0076,-0.9855,0.1003
3338094,0.0076,-0.9856,0.1007
3338108,0.0076,-0.9856,0.1012
3338124,0.0076,-0.9856,0.1017
3338142,0.0076,-0.9855,0.1023
3338181,0.0076,-0.9855,0.1035
3338197,0.0076,-0.9855,0.1038
3338213,0.0076,-0.9855,0.1038
3338223,0.0076,-0.9855,0.1035
3338239,0.0077,-0.9867,0.1017
3338255,0.0082,-0.9915,0.0963
3338271,0.0095,-1.0013,0.0837
3338289,0.0116,-1.0157,0.0607
3338320,0.0187,-1.0392,-0.0229
3338336,0.0237,-1.0402,-0.0815
3338346,0.0264,-1.0383,-0.1139
3338377,0.0366,-1.0256,-0.2498
3338386,0.0388,-1.0222,-0.2828
3338402,0.0426,-1.0154,-0.3450
3338423,0.0455,-1.0090,-0.3992
3338439,0.0479,-1.0039,-0.4432
3338455,0.0494,-1.0015,-0.4761
3338471,0.0504,-1.0020,-0.4977
3338481,0.0507,-1.0029,-0.5044
3338497,0.0509,-1.0057,-0.5109
3338512,0.0509,-1.0084,-0.5092
3338527,0.0507,-1.0104,-0.5012
3338546,0.0503,-1.0123,-0.4891
3338558,0.0494,-1.0150,-0.4749
3338574,0.0482,-1.0183,-0.4597
3338593,0.0469,-1.0210,-0.4454
3338631,0.0442,-1.0226,-0.4166
3338689,0.0404,-0.9955,-0.3408
3338706,0.0355,-0.9794,-0.2877
3338720,0.0322,-0.9702,-0.1908
3338735,0.0240,-0.9519,-0.1685
3338751,0.0140,-0.9359,-0.0634
3338762,0.0026,-0.9241,0.0575
3338811,-0.0321,-0.9215,0.4407
3338826,-0.0370,-0.9249,0.4974
3338844,-0.0492,-0.9374,0.6404
3338859,-0.0522,-0.9417,0.6775
3338875,-0.0566,-0.9492,0.7349
3338891,-0.0585,-0.9547,0.7700
3338922,-0.0552,-0.9565,0.7805
3338932,-0.0532,-0.9552,0.7728
3338948,-0.0485,-0.9508,0.7483
3338966,-0.0428,-0.9449,0.7147
3338982,-0.0370,-0.9381,0.6758
3339021,-0.0233,-0.9244,0.5728
3339036,-0.0190,-0.9225,0.5347
3339052,-0.0157,-0.9232,0.4999
3339062,-0.0144,-0.9246,0.4839
3339078,-0.0125,-0.9291,0.4548
3339094,-0.0110,-0.9354,0.4293
3339110,-0.0098,-0.9427,0.4070
3339126,-0.0087,-0.9498,0.3872
3339136,-0.0082,-0.9530,0.3782
3339152,-0.0072,-0.9581,0.3613
3339170,-0.0062,-0.9614,0.3457
3339186,-0.0051,-0.9633,0.3304
3339248,0.0006,-0.9651,0.2607
3339266,0.0022,-0.9661,0.2402
3339282,0.0039,-0.9673,0.2188
3339298,0.0055,-0.9686,0.1973
3339314,0.0068,-0.9698,0.1761
3339332,0.0079,-0.9709,0.1564
3339348,0.0088,-0.9719,0.1384
3339364,0.0094,-0.9729,0.1229
3339374,0.0096,-0.9734,0.1162
3339390,0.0101,-0.9746,0.1047
3339421,0.0104,-0.9777,0.0896
3339437,0.0105,-0.9794,0.0856
3339453,0.0105,-0.9812,0.0833
3339463,0.0105,-0.9821,0.0826
3339479,0.0105,-0.9836,0.0824
3339495,0.0105,-0.9851,0.0833
3339529,0.0103,-0.9873,0.0878
3339541,0.0103,-0.9875,0.0894
3339557,0.0101,-0.9880,0.0928
3339576,0.0099,-0.9882,0.0983
3339592,0.0098,-0.9879,0.1019
3339639,0.0094,-0.9867,0.1093
3339653,0.0093,-0.9862,0.1111
3339663,0.0093,-0.9860,0.1118
3339679,0.0092,-0.9855,0.1127
3339695,0.0092,-0.9851,0.1128
3339711,0.0092,-0.9849,0.1124
3339729,0.0092,-0.9847,0.1116
3339745,0.0093,-0.9846,0.1105
3339761,0.0093,-0.9847,0.1091
3339783,0.0094,-0.9849,0.1072
3339827,0.0096,-0.9854,0.1050
3339868,0.0098,-0.9857,0.1047
3339878,0.0099,-0.9857,0.1047
3339894,0.0099,-0.9857,0.1051
3339910,0.0099,-0.9857,0.1056
3339926,0.0098,-0.9857,0.1061
3339944,0.0098,-0.9857,0.1067
3339960,0.0098,-0.9856,0.1069
3339976,0.0096,-0.9856,0.1072
3339986,0.0096,-0.9855,0.1074
3340001,0.0096,-0.9855,0.1075
3340032,0.0095,-0.9854,0.1078
3340047,0.0095,-0.9854,0.1077
3340063,0.0095,-0.9854,0.1075
3340073,0.0095,-0.9854,0.1074
3340089,0.0095,-0.9852,0.1073
3340105,0.0095,-0.9852,0.1072
3340121,0.0096,-0.9851,0.1069
3340165,0.0098,-0.9850,0.1067
3340181,0.0099,-0.9851,0.1067
3340191,0.0098,-0.9851,0.1066
3340222,0.0098,-0.9852,0.1067
3340238,0.0098,-0.9852,0.1067
3340254,0.0098,-0.9854,0.1068
3340264,0.0098,-0.9854,0.1068
3340280,0.0096,-0.9855,0.1069
3340296,0.0096,-0.9856,0.1068
3340312,0.0096,-0.9857,0.1062
3340330,0.0098,-0.9867,0.1044
3340346,0.0100,-0.9910,0.0989
3340362,0.0106,-1.0012,0.0863
3340378,0.0117,-1.0166,0.0632
3340419,0.0189,-1.0447,-0.0503
3340435,0.0237,-1.0433,-0.1150
3340466,0.0358,-1.0297,-0.2577
3340476,0.0389,-1.0254,-0.2928
3340492,0.0455,-1.0168,-0.3588
3340508,0.0518,-1.0094,-0.4164
3340524,0.0570,-1.0043,-0.4629
3340540,0.0610,-1.0013,-0.4974
3340557,0.0636,-1.0000,-0.5200
3340573,0.0648,-0.9994,-0.5314
3340589,0.0651,-0.9994,-0.5331
3340600,0.0648,-0.9999,-0.5310
3340650,0.0616,-1.0120,-0.4932
3340667,0.0603,-1.0162,-0.4698
3340677,0.0590,-1.0192,-0.4625
3340693,0.0573,-1.0209,-0.4491
3340719,0.0538,-1.0214,-0.4299
3340728,0.0524,-1.0204,-0.4224
3340741,0.0507,-1.0184,-0.4021
3340776,0.0364,-0.9916,-0.3243
3340792,0.0273,-0.9728,-0.2581
3340838,-0.0028,-0.9241,-0.0017
3340854,-0.0162,-0.9116,0.1271
3340864,-0.0227,-0.9080,0.1936
3340880,-0.0352,-0.9060,0.3260
3340896,-0.0461,-0.9111,0.4518
3340912,-0.0552,-0.9213,0.5641
3340930,-0.0616,-0.9335,0.6577
3340946,-0.0653,-0.9452,0.7291
3340962,-0.0662,-0.9546,0.7776
3340978,-0.0645,-0.9603,0.8036
3340996,-0.0604,-0.9618,0.8049
3341006,-0.0547,-0.9594,0.7969
3341022,-0.0482,-0.9541,0.7712
3341035,-0.0449,-0.9509,0.7544
3341074,-0.0303,-0.9346,0.6492
3341105,-0.0208,-0.9280,0.5616
3341121,-0.0164,-0.9277,0.5222
3341137,-0.0126,-0.9288,0.4867
3341147,-0.0109,-0.9299,0.4705
3341163,-0.0084,-0.9325,0.4406
3341181,-0.0067,-0.9355,0.4139
3341197,-0.0055,-0.9387,0.3898
3341207,-0.0050,-0.9402,0.3785
3341238,-0.0031,-0.9457,0.3378
3341254,-0.0021,-0.9484,0.3195
3341270,-0.0011,-0.9509,0.3021
3341280,-0.0006,-0.9521,0.2939
3341296,0.0001,-0.9543,0.2788
3341312,0.0007,-0.9569,0.2649
3341328,0.0015,-0.9601,0.2518
3341346,0.0022,-0.9642,0.2390
3341381,0.0038,-0.9755,0.2118
3341397,0.0048,-0.9812,0.1970
3341407,0.0052,-0.9858,0.1815
3341417,0.0062,-0.9874,0.1736
3341433,0.0073,-0.9891,0.1576
3341449,0.0084,-0.9888,0.1420
3341464,0.0089,-0.9879,0.1346
3341495,0.0105,-0.9827,0.1091
3341511,0.0112,-0.9799,0.0996
3341527,0.0117,-0.9774,0.0924
3341537,0.0118,-0.9766,0.0897
3341552,0.0121,-0.9753,0.0862
3341568,0.0122,-0.9750,0.0846
3341584,0.0122,-0.9755,0.0848
3341602,0.0120,-0.9766,0.0865
3341621,0.0116,-0.9790,0.0911
3341637,0.0115,-0.9800,0.0947
3341653,0.0111,-0.9818,0.0967
3341729,0.0101,-0.9871,0.1124
3341739,0.0100,-0.9872,0.1134
3341755,0.0100,-0.9871,0.1147
3341771,0.0099,-0.9867,0.1155
3341787,0.0099,-0.9863,0.1160
3341805,0.0099,-0.9857,0.1160
3341827,0.0100,-0.9850,0.1155
3341842,0.0100,-0.9847,0.1152
3341858,0.0100,-0.9845,0.1145
3341902,0.0101,-0.9840,0.1119
3341918,0.0101,-0.9841,0.1111
3341936,0.0101,-0.9843,0.1105
3341952,0.0103,-0.9844,0.1099
3341991,0.0103,-0.9849,0.1093
3342001,0.0103,-0.9850,0.1093
3342017,0.0103,-0.9851,0.1093
3342027,0.0103,-0.9852,0.1094
3342041,0.0103,-0.9855,0.1093
3342058,0.0104,-0.9866,0.1080
3342089,0.0114,-1.0007,0.0913
3342105,0.0127,-1.0076,0.0814
3342121,0.0150,-1.0233,0.0518
3342131,0.0186,-1.0367,0.0083
3342146,0.0208,-1.0411,-0.0184
3342162,0.0259,-1.0439,-0.0802
3342178,0.0319,-1.0404,-0.1500
3342193,0.0382,-1.0332,-0.2233
3342203,0.0414,-1.0291,-0.2598
3342219,0.0474,-1.0204,-0.3300
3342229,0.0526,-1.0126,-0.3932
3342245,0.0549,-1.0090,-0.4526
3342261,0.0587,-1.0027,-0.4694
3342318,0.0643,-0.9917,-0.5457
3342336,0.0641,-0.9957,-0.5416
3342352,0.0638,-1.0294,-0.5314
3342368,0.0629,-1.0042,-0.5249
3342384,0.0616,-1.0100,-0.5103
3342402,0.0602,-1.0165,-0.4861
3342417,0.0597,-1.0181,-0.4780
3342435,0.0576,-1.0219,-0.4536
3342450,0.0568,-1.0220,-0.4446
3342489,0.0487,-1.0076,-0.3741
3342505,0.0422,-0.9930,-0.3236
3342521,0.0332,-0.9739,-0.2533
3342531,0.0277,-0.9635,-0.2101
3342546,0.0153,-0.9435,-0.1082
3342563,0.0012,-0.9269,0.0114
3342594,-0.0287,-0.9121,0.2760
3342604,-0.0358,-0.9127,0.3418
3342620,-0.0490,-0.9185,0.4663
3342639,-0.0597,-0.9276,0.5758
3342655,-0.0675,-0.9376,0.6653
3342703,-0.0712,-0.9551,0.7987
3342717,-0.0667,-0.9548,0.8020
3342740,-0.0565,-0.9506,0.7787
3342749,-0.0527,-0.9484,0.7651
3342765,-0.0450,-0.9432,0.7314
3342781,-0.0375,-0.9375,0.6920
3342794,-0.0337,-0.9347,0.6710
3342810,-0.0265,-0.9296,0.6285
3342826,-0.0194,-0.9253,0.5867
3342844,-0.0132,-0.9227,0.5472
3342887,-0.0013,-0.9270,0.4495
3342918,0.0012,-0.9348,0.4113
3342928,0.0022,-0.9409,0.3890
3342943,0.0026,-0.9440,0.3785
3342959,0.0029,-0.9497,0.3589
3342975,0.0029,-0.9545,0.3405
3342993,0.0026,-0.9579,0.3151
3343009,0.0021,-0.9603,0.3070
3343025,0.0017,-0.9623,0.2913
3343040,0.0016,-0.9637,0.2759
3343051,0.0016,-0.9648,0.2607
3343082,0.0022,-0.9662,0.2390
3343098,0.0028,-0.9672,0.2250
3343114,0.0037,-0.9685,0.2112
3343124,0.0042,-0.9695,0.2042
3343140,0.0051,-0.9718,0.1906
3343156,0.0062,-0.9742,0.1770
3343172,0.0073,-0.9767,0.1637
3343190,0.0083,-0.9785,0.1450
3343227,0.0103,-0.9803,0.1241
3343243,0.0109,-0.9802,0.1162
3343276,0.0115,-0.9797,0.1060
3343292,0.0115,-0.9795,0.1035
3343308,0.0115,-0.9795,0.1029
3343318,0.0115,-0.9796,0.1030
3343334,0.0112,-0.9800,0.1044
3343350,0.0110,-0.9803,0.1067
3343366,0.0107,-0.9810,0.1095
3343384,0.0106,-0.9817,0.1127
3343400,0.0104,-0.9824,0.1157
3343416,0.0103,-0.9830,0.1185
3343432,0.0103,-0.9835,0.1208
3343450,0.0101,-0.9840,0.1227
3343464,0.0101,-0.9843,0.1238
3343480,0.0101,-0.9845,0.1244
3343496,0.0103,-0.9845,0.1244
3343527,0.0103,-0.9845,0.1234
3343558,0.0104,-0.9843,0.1221
3343573,0.0104,-0.9841,0.1212
3343589,0.0104,-0.9840,0.1204
3343599,0.0104,-0.9840,0.1200
3343615,0.0104,-0.9839,0.1194
3343631,0.0104,-0.9839,0.1190
3343647,0.0104,-0.9838,0.1188
3343717,0.0103,-0.9836,0.1193
3343739,0.0103,-0.9836,0.1195
3343755,0.0103,-0.9836,0.1198
3343771,0.0103,-0.9835,0.1199
3343789,0.0104,-0.9836,0.1201
3343828,0.0104,-0.9836,0.1202
3343844,0.0104,-0.9838,0.1202
3343854,0.0105,-0.9838,0.1202
3343872,0.0105,-0.9838,0.1200
3343888,0.0105,-0.9839,0.1200
3343904,0.0105,-0.9839,0.1199
3343954,0.0107,-0.9839,0.1196
3343970,0.0109,-0.9839,0.1196
3343988,0.0109,-0.9845,0.1189
3344003,0.0109,-0.9854,0.1180
3344019,0.0111,-0.9905,0.1132
3344035,0.0120,-1.0015,0.1007
3344053,0.0139,-1.0266,0.0605
3344068,0.0171,-1.0343,0.0404
3344079,0.0217,-1.0437,-0.0100
3344093,0.0248,-1.0446,-0.0399
3344136,0.0515,-1.0221,-0.2598
3344167,0.0652,-1.0129,-0.3678
3344182,0.0724,-1.0096,-0.4291
3344198,0.0774,-1.0082,-0.4790
3344208,0.0791,-1.0081,-0.4991
3344224,0.0811,-1.0089,-0.5293
3344237,0.0812,-1.0114,-0.5466
3344253,0.0796,-1.0150,-0.5529
3344271,0.0764,-1.0194,-0.5498
3344281,0.0741,-1.0219,-0.5457
3344297,0.0686,-1.0266,-0.5336
3344313,0.0621,-1.0305,-0.5184
3344329,0.0558,-1.0326,-0.5016
3344360,0.0447,-1.0328,-0.4679
3344376,0.0403,-1.0315,-0.4531
3344392,0.0369,-1.0292,-0.4393
3344402,0.0355,-1.0276,-0.4327
3344447,0.0331,-1.0110,-0.3916
3344465,0.0310,-0.9915,-0.3446
3344483,0.0273,-0.9738,-0.2950
3344499,0.0215,-0.9532,-0.2262
3344515,0.0135,-0.9329,-0.1361
3344553,-0.0072,-0.9071,0.0986
3344567,-0.0188,-0.9048,0.2311
3344584,-0.0303,-0.9087,0.3624
3344594,-0.0358,-0.9125,0.4252
3344610,-0.0458,-0.9224,0.5405
3344626,-0.0536,-0.9330,0.6377
3344642,-0.0594,-0.9423,0.7134
3344660,-0.0631,-0.9495,0.7664
3344676,-0.0649,-0.9539,0.7980
3344687,-0.0647,-0.9552,0.8101
3344703,-0.0625,-0.9535,0.8053
3344789,-0.0316,-0.9247,0.6511
3344805,-0.0243,-0.9207,0.6144
3344821,-0.0178,-0.9186,0.5798
3344837,-0.0123,-0.9187,0.5485
3344853,-0.0079,-0.9211,0.5204
3344863,-0.0062,-0.9231,0.5076
3344879,-0.0038,-0.9282,0.4840
3344890,-0.0029,-0.9312,0.4731
3344906,-0.0018,-0.9370,0.4524
3344957,-0.0015,-0.9487,0.3842
3344973,-0.0013,-0.9490,0.3745
3344991,-0.0006,-0.9487,0.3468
3345007,0.0002,-0.9490,0.3293
3345055,0.0032,-0.9559,0.2855
3345064,0.0048,-0.9618,0.2662
3345081,0.0067,-0.9685,0.2455
3345091,0.0078,-0.9719,0.2346
3345107,0.0099,-0.9780,0.2122
3345123,0.0118,-0.9824,0.1892
3345154,0.0150,-0.9849,0.1448
3345170,0.0156,-0.9845,0.1348
3345186,0.0165,-0.9830,0.1163
3345196,0.0171,-0.9810,0.1007
3345211,0.0172,-0.9799,0.0941
3345227,0.0175,-0.9780,0.0834
3345242,0.0175,-0.9767,0.0758
3345260,0.0173,-0.9761,0.0714
3345276,0.0171,-0.9762,0.0699
3345294,0.0166,-0.9775,0.0721
3345310,0.0164,-0.9783,0.0760
3345365,0.0155,-0.9840,0.0927
3345381,0.0153,-0.9854,0.0983
3345391,0.0153,-0.9860,0.1010
3345407,0.0151,-0.9868,0.1058
3345423,0.0150,-0.9873,0.1099
