timestamp,acc_x,acc_y,acc_z
79759,0.0132,-0.9457,0.2229
79966,0.0135,-0.9452,0.2227
79996,0.0135,-0.9452,0.2225
80019,0.0134,-0.9453,0.2225
80036,0.0134,-0.9453,0.2225
80058,0.0134,-0.9453,0.2225
80090,0.0134,-0.9453,0.2225
80107,0.0134,-0.9453,0.2225
80129,0.0135,-0.9454,0.2224
80152,0.0135,-0.9454,0.2224
80169,0.0135,-0.9454,0.2224
80186,0.0135,-0.9456,0.2224
80208,0.0135,-0.9456,0.2224
80242,0.0135,-0.9456,0.2223
80260,0.0135,-0.9457,0.2223
80283,0.0135,-0.9457,0.2223
80300,0.0135,-0.9457,0.2223
80322,0.0134,-0.9457,0.2222
80344,0.0134,-0.9457,0.2222
80361,0.0134,-0.9456,0.2220
80402,0.0133,-0.9451,0.2212
80439,0.0134,-0.9446,0.2202
80460,0.0135,-0.9445,0.2196
80485,0.0139,-0.9443,0.2183
80507,0.0142,-0.9445,0.2175
80530,0.0150,-0.9449,0.2159
80547,0.0154,-0.9452,0.2151
80569,0.0159,-0.9457,0.2142
80591,0.0165,-0.9460,0.2133
80608,0.0170,-0.9465,0.2123
80625,0.0176,-0.9470,0.2111
80648,0.0189,-0.9479,0.2085
80690,0.0201,-0.9487,0.2058
80721,0.0210,-0.9497,0.2030
80738,0.0212,-0.9502,0.2018
80757,0.0214,-0.9507,0.2004
80781,0.0211,-0.9515,0.1979
80805,0.0208,-0.9520,0.1965
80823,0.0204,-0.9524,0.1953
80846,0.0194,-0.9532,0.1929
80905,0.0178,-0.9541,0.1896
80928,0.0167,-0.9546,0.1876
80948,0.0162,-0.9547,0.1868
80970,0.0157,-0.9548,0.1860
80993,0.0148,-0.9548,0.1847
81026,0.0142,-0.9548,0.1838
81044,0.0138,-0.9548,0.1833
81099,0.0134,-0.9548,0.1825
81121,0.0133,-0.9547,0.1823
81138,0.0133,-0.9547,0.1821
81161,0.0135,-0.9547,0.1819
81183,0.0137,-0.9547,0.1819
81200,0.0138,-0.9547,0.1819
81223,0.0142,-0.9547,0.1820
81240,0.0143,-0.9547,0.1821
81274,0.0146,-0.9545,0.1823
81295,0.0149,-0.9545,0.1824
81326,0.0151,-0.9542,0.1826
81343,0.0153,-0.9540,0.1829
81365,0.0154,-0.9537,0.1830
81390,0.0156,-0.9529,0.1831
81405,0.0157,-0.9523,0.1831
81426,0.0159,-0.9518,0.1832
81448,0.0160,-0.9512,0.1832
81476,0.0162,-0.9503,0.1831
81498,0.0162,-0.9501,0.1831
81523,0.0162,-0.9498,0.1829
81545,0.0161,-0.9500,0.1827
81568,0.0159,-0.9504,0.1823
81585,0.0157,-0.9506,0.1819
81633,0.0150,-0.9509,0.1804
81671,0.0142,-0.9509,0.1794
81693,0.0135,-0.9509,0.1788
81718,0.0122,-0.9514,0.1776
81740,0.0115,-0.9520,0.1769
81773,0.0100,-0.9537,0.1750
81792,0.0092,-0.9550,0.1741
81813,0.0083,-0.9563,0.1730
81836,0.0067,-0.9590,0.1709
81855,0.0060,-0.9603,0.1699
81877,0.0051,-0.9615,0.1689
81900,0.0039,-0.9635,0.1672
81944,0.0029,-0.9645,0.1658
81984,0.0023,-0.9642,0.1641
82004,0.0023,-0.9639,0.1636
82026,0.0026,-0.9635,0.1632
82049,0.0037,-0.9626,0.1625
82091,0.0052,-0.9619,0.1619
82114,0.0074,-0.9617,0.1615
82131,0.0087,-0.9619,0.1614
82153,0.0099,-0.9624,0.1613
82175,0.0111,-0.9633,0.1611
82192,0.0125,-0.9642,0.1610
82215,0.0150,-0.9668,0.1610
82237,0.0162,-0.9680,0.1611
82277,0.0194,-0.9708,0.1619
82293,0.0203,-0.9711,0.1624
82333,0.0215,-0.9703,0.1636
82355,0.0219,-0.9692,0.1644
82380,0.0221,-0.9661,0.1663
82400,0.0220,-0.9640,0.1672
82420,0.0219,-0.9618,0.1683
82445,0.0211,-0.9568,0.1707
82467,0.0205,-0.9541,0.1719
82492,0.0192,-0.9487,0.1741
82526,0.0179,-0.9438,0.1759
82548,0.0172,-0.9418,0.1768
82579,0.0160,-0.9387,0.1780
82596,0.0155,-0.9379,0.1783
82618,0.0150,-0.9375,0.1785
82641,0.0143,-0.9385,0.1783
82658,0.0140,-0.9397,0.1781
82680,0.0139,-0.9413,0.1776
82697,0.0138,-0.9432,0.1770
82732,0.0140,-0.9476,0.1757
82755,0.0148,-0.9524,0.1740
82779,0.0151,-0.9546,0.1730
82801,0.0156,-0.9568,0.1720
82822,0.0164,-0.9603,0.1698
82840,0.0168,-0.9617,0.1687
82889,0.0184,-0.9641,0.1652
82943,0.0204,-0.9646,0.1615
82965,0.0211,-0.9645,0.1603
82982,0.0217,-0.9642,0.1591
83005,0.0228,-0.9633,0.1567
83027,0.0234,-0.9626,0.1556
83044,0.0238,-0.9620,0.1547
83067,0.0245,-0.9614,0.1528
83089,0.0249,-0.9615,0.1520
83111,0.0250,-0.9622,0.1512
83134,0.0253,-0.9650,0.1503
83156,0.0254,-0.9669,0.1499
83219,0.0256,-0.9750,0.1503
83236,0.0256,-0.9760,0.1508
83258,0.0254,-0.9763,0.1515
83280,0.0251,-0.9761,0.1525
83298,0.0244,-0.9738,0.1550
83315,0.0238,-0.9718,0.1566
83334,0.0232,-0.9694,0.1583
83369,0.0217,-0.9640,0.1621
83393,0.0210,-0.9611,0.1641
83415,0.0193,-0.9553,0.1677
83437,0.0184,-0.9528,0.1696
83459,0.0176,-0.9503,0.1713
83490,0.0161,-0.9464,0.1742
83507,0.0155,-0.9449,0.1755
83524,0.0149,-0.9437,0.1768
83547,0.0140,-0.9425,0.1786
83581,0.0134,-0.9425,0.1798
83603,0.0132,-0.9429,0.1803
83628,0.0131,-0.9443,0.1808
83650,0.0131,-0.9453,0.1808
83672,0.0131,-0.9464,0.1808
83689,0.0132,-0.9475,0.1807
83712,0.0134,-0.9500,0.1804
83729,0.0135,-0.9510,0.1802
83771,0.0140,-0.9534,0.1797
83816,0.0145,-0.9559,0.1791
83834,0.0146,-0.9567,0.1788
83855,0.0149,-0.9572,0.1786
83878,0.0151,-0.9579,0.1785
83895,0.0153,-0.9581,0.1783
83917,0.0154,-0.9583,0.1785
83935,0.0154,-0.9583,0.1785
83987,0.0155,-0.9578,0.1790
84010,0.0155,-0.9573,0.1793
84027,0.0155,-0.9569,0.1796
84049,0.0155,-0.9565,0.1798
84072,0.0154,-0.9559,0.1802
84105,0.0154,-0.9553,0.1802
84129,0.0154,-0.9552,0.1801
84178,0.0154,-0.9550,0.1791
84200,0.0154,-0.9550,0.1785
84217,0.0153,-0.9551,0.1779
84240,0.0151,-0.9553,0.1764
84262,0.0151,-0.9556,0.1757
84279,0.0150,-0.9557,0.1749
84301,0.0149,-0.9559,0.1742
84324,0.0146,-0.9563,0.1731
84360,0.0144,-0.9565,0.1727
84408,0.0142,-0.9565,0.1737
84425,0.0142,-0.9565,0.1743
84446,0.0142,-0.9564,0.1750
84469,0.0142,-0.9562,0.1765
84486,0.0142,-0.9559,0.1774
84508,0.0142,-0.9558,0.1780
84530,0.0143,-0.9557,0.1787
84567,0.0145,-0.9554,0.1801
84589,0.0145,-0.9553,0.1803
84613,0.0146,-0.9553,0.1805
84636,0.0148,-0.9552,0.1805
84658,0.0149,-0.9552,0.1804
84675,0.0150,-0.9552,0.1802
84710,0.0151,-0.9553,0.1796
84733,0.0153,-0.9553,0.1791
84763,0.0153,-0.9553,0.1786
84786,0.0154,-0.9553,0.1785
84803,0.0154,-0.9553,0.1783
84825,0.0154,-0.9552,0.1785
84844,0.0155,-0.9552,0.1786
84870,0.0155,-0.9551,0.1790
84892,0.0155,-0.9550,0.1793
84915,0.0155,-0.9548,0.1798
84932,0.0155,-0.9548,0.1801
84950,0.0155,-0.9547,0.1802
84972,0.0155,-0.9547,0.1802
85011,0.0153,-0.9548,0.1796
85066,0.0151,-0.9550,0.1785
85083,0.0150,-0.9551,0.1782
85105,0.0149,-0.9551,0.1779
85128,0.0146,-0.9550,0.1774
85145,0.0145,-0.9550,0.1772
85162,0.0144,-0.9550,0.1771
85184,0.0143,-0.9550,0.1771
85238,0.0139,-0.9550,0.1769
85254,0.0138,-0.9551,0.1769
85273,0.0138,-0.9552,0.1768
85312,0.0137,-0.9557,0.1764
85336,0.0137,-0.9559,0.1763
85361,0.0135,-0.9563,0.1758
85381,0.0135,-0.9565,0.1755
85415,0.0137,-0.9569,0.1750
85434,0.0137,-0.9570,0.1749
85456,0.0138,-0.9573,0.1747
85478,0.0138,-0.9573,0.1746
85500,0.0139,-0.9573,0.1747
85523,0.0140,-0.9573,0.1749
85540,0.0140,-0.9572,0.1752
85564,0.0140,-0.9570,0.1755
85586,0.0142,-0.9569,0.1759
85637,0.0142,-0.9562,0.1776
85661,0.0140,-0.9561,0.1781
85683,0.0142,-0.9558,0.1786
85706,0.0142,-0.9554,0.1794
85723,0.0143,-0.9553,0.1798
85745,0.0143,-0.9552,0.1799
85770,0.0144,-0.9552,0.1797
85804,0.0144,-0.9554,0.1787
85829,0.0144,-0.9556,0.1781
85845,0.0143,-0.9557,0.1774
85863,0.0143,-0.9558,0.1768
85885,0.0142,-0.9561,0.1758
85926,0.0142,-0.9562,0.1754
85943,0.0142,-0.9562,0.1754
85965,0.0143,-0.9562,0.1755
85984,0.0143,-0.9561,0.1758
86035,0.0144,-0.9557,0.1766
86057,0.0145,-0.9556,0.1771
86074,0.0146,-0.9554,0.1775
86096,0.0146,-0.9553,0.1780
86119,0.0149,-0.9551,0.1787
86136,0.0150,-0.9551,0.1788
86158,0.0151,-0.9551,0.1787
86183,0.0151,-0.9552,0.1780
86223,0.0151,-0.9554,0.1768
86264,0.0149,-0.9559,0.1750
86281,0.0149,-0.9561,0.1748
86303,0.0148,-0.9562,0.1747
86325,0.0146,-0.9562,0.1748
86346,0.0145,-0.9563,0.1752
86366,0.0144,-0.9564,0.1754
86390,0.0143,-0.9564,0.1755
86418,0.0140,-0.9565,0.1759
86437,0.0139,-0.9567,0.1759
86462,0.0138,-0.9567,0.1760
86482,0.0138,-0.9567,0.1760
86504,0.0139,-0.9567,0.1760
86529,0.0140,-0.9565,0.1761
86560,0.0142,-0.9564,0.1761
86582,0.0143,-0.9563,0.1761
86612,0.0144,-0.9562,0.1761
86634,0.0145,-0.9561,0.1761
86659,0.0146,-0.9559,0.1761
86681,0.0148,-0.9558,0.1760
86703,0.0148,-0.9558,0.1760
86720,0.0149,-0.9557,0.1760
86743,0.0149,-0.9557,0.1760
86765,0.0150,-0.9556,0.1761
86789,0.0150,-0.9556,0.1761
86807,0.0149,-0.9556,0.1764
86829,0.0149,-0.9556,0.1765
86889,0.0148,-0.9557,0.1771
86913,0.0146,-0.9557,0.1772
86935,0.0146,-0.9557,0.1775
86958,0.0145,-0.9557,0.1777
86975,0.0144,-0.9557,0.1779
86997,0.0144,-0.9558,0.1780
87015,0.0143,-0.9558,0.1780
87074,0.0142,-0.9558,0.1780
87096,0.0142,-0.9558,0.1780
87113,0.0142,-0.9558,0.1780
87135,0.0142,-0.9558,0.1779
87177,0.0143,-0.9558,0.1776
87194,0.0143,-0.9558,0.1775
87218,0.0143,-0.9558,0.1774
87241,0.0143,-0.9558,0.1772
87281,0.0144,-0.9558,0.1770
87304,0.0144,-0.9558,0.1769
87321,0.0144,-0.9558,0.1768
87343,0.0145,-0.9558,0.1768
87365,0.0145,-0.9558,0.1766
87385,0.0145,-0.9558,0.1766
87405,0.0144,-0.9558,0.1766
87423,0.0144,-0.9559,0.1766
87457,0.0144,-0.9559,0.1768
87487,0.0143,-0.9559,0.1769
87505,0.0143,-0.9559,0.1769
87527,0.0142,-0.9559,0.1770
87550,0.0142,-0.9559,0.1771
87567,0.0142,-0.9559,0.1771
87589,0.0140,-0.9559,0.1771
87611,0.0140,-0.9559,0.1771
87648,0.0139,-0.9561,0.1768
87670,0.0139,-0.9562,0.1766
87694,0.0139,-0.9562,0.1765
87717,0.0138,-0.9563,0.1763
87739,0.0138,-0.9563,0.1763
87756,0.0138,-0.9564,0.1761
87795,0.0138,-0.9564,0.1760
87820,0.0139,-0.9564,0.1759
87840,0.0140,-0.9564,0.1758
87856,0.0140,-0.9565,0.1757
87900,0.0143,-0.9565,0.1754
87920,0.0144,-0.9565,0.1754
87945,0.0145,-0.9564,0.1755
87967,0.0146,-0.9564,0.1757
87989,0.0148,-0.9563,0.1758
88006,0.0148,-0.9563,0.1759
88031,0.0149,-0.9562,0.1761
88053,0.0149,-0.9562,0.1764
88105,0.0150,-0.9559,0.1768
88140,0.0150,-0.9559,0.1769
88157,0.0150,-0.9558,0.1770
88180,0.0150,-0.9558,0.1771
88202,0.0150,-0.9558,0.1771
88219,0.0150,-0.9558,0.1771
88236,0.0150,-0.9558,0.1771
88259,0.0150,-0.9559,0.1770
88305,0.0149,-0.9559,0.1770
88328,0.0148,-0.9561,0.1771
88345,0.0148,-0.9559,0.1774
88367,0.0148,-0.9559,0.1779
88390,0.0148,-0.9554,0.1803
88409,0.0148,-0.9551,0.1824
88452,0.0149,-0.9537,0.1892
88485,0.0151,-0.9517,0.2001
88507,0.0155,-0.9487,0.2151
88524,0.0157,-0.9469,0.2242
88546,0.0159,-0.9449,0.2344
88568,0.0161,-0.9427,0.2454
88585,0.0162,-0.9404,0.2572
88608,0.0166,-0.9354,0.2825
88630,0.0168,-0.9329,0.2954
88647,0.0170,-0.9302,0.3085
88664,0.0172,-0.9276,0.3212
88687,0.0176,-0.9230,0.3442
88728,0.0181,-0.9196,0.3617
88763,0.0184,-0.9180,0.3704
88780,0.0186,-0.9181,0.3706
88803,0.0184,-0.9200,0.3621
88825,0.0182,-0.9218,0.3531
88842,0.0179,-0.9241,0.3414
88866,0.0176,-0.9268,0.3269
88889,0.0166,-0.9336,0.2911
88917,0.0153,-0.9418,0.2487
88939,0.0146,-0.9462,0.2260
88963,0.0139,-0.9506,0.2029
88986,0.0126,-0.9591,0.1573
89006,0.0118,-0.9633,0.1356
89030,0.0114,-0.9670,0.1151
89062,0.0104,-0.9739,0.0786
89080,0.0101,-0.9768,0.0630
89132,0.0096,-0.9850,0.0209
89154,0.0098,-0.9861,0.0154
89171,0.0099,-0.9869,0.0116
89193,0.0100,-0.9874,0.0096
89216,0.0105,-0.9878,0.0100
89233,0.0107,-0.9875,0.0121
89255,0.0110,-0.9872,0.0153
89272,0.0111,-0.9867,0.0194
89319,0.0117,-0.9841,0.0361
89365,0.0122,-0.9805,0.0579
89382,0.0122,-0.9790,0.0658
89403,0.0123,-0.9775,0.0740
89423,0.0125,-0.9760,0.0823
89448,0.0127,-0.9727,0.0992
89467,0.0127,-0.9709,0.1077
89485,0.0128,-0.9694,0.1160
89530,0.0132,-0.9646,0.1393
89551,0.0133,-0.9631,0.1464
89576,0.0135,-0.9604,0.1591
89598,0.0137,-0.9594,0.1647
89620,0.0138,-0.9583,0.1697
89637,0.0139,-0.9573,0.1742
89671,0.0140,-0.9558,0.1812
89688,0.0142,-0.9552,0.1838
89716,0.0144,-0.9545,0.1871
89738,0.0144,-0.9542,0.1881
89763,0.0145,-0.9541,0.1884
89785,0.0145,-0.9542,0.1879
89808,0.0145,-0.9546,0.1860
89825,0.0145,-0.9548,0.1847
89850,0.0145,-0.9551,0.1832
89866,0.0145,-0.9553,0.1818
89889,0.0145,-0.9559,0.1786
89919,0.0145,-0.9562,0.1770
89942,0.0144,-0.9568,0.1742
89979,0.0144,-0.9572,0.1718
89996,0.0144,-0.9574,0.1708
90018,0.0144,-0.9575,0.1700
90040,0.0143,-0.9578,0.1689
90058,0.0143,-0.9578,0.1686
90080,0.0143,-0.9579,0.1685
90098,0.0143,-0.9579,0.1683
90159,0.0142,-0.9578,0.1691
90176,0.0142,-0.9578,0.1694
90198,0.0142,-0.9576,0.1698
90221,0.0142,-0.9574,0.1707
90238,0.0142,-0.9574,0.1710
90276,0.0142,-0.9572,0.1718
90293,0.0142,-0.9570,0.1721
90331,0.0142,-0.9569,0.1727
90354,0.0142,-0.9568,0.1731
90371,0.0142,-0.9568,0.1732
90395,0.0142,-0.9567,0.1733
90414,0.0142,-0.9567,0.1735
90433,0.0142,-0.9567,0.1735
90452,0.0142,-0.9567,0.1735
90471,0.0142,-0.9567,0.1733
90496,0.0142,-0.9567,0.1732
90517,0.0142,-0.9567,0.1731
90539,0.0143,-0.9567,0.1730
90597,0.0143,-0.9568,0.1725
90624,0.0143,-0.9568,0.1724
90646,0.0144,-0.9568,0.1724
90669,0.0144,-0.9568,0.1721
90686,0.0144,-0.9569,0.1721
90703,0.0144,-0.9569,0.1720
90725,0.0144,-0.9569,0.1720
90765,0.0145,-0.9569,0.1719
90787,0.0145,-0.9569,0.1719
90811,0.0144,-0.9569,0.1719
90834,0.0144,-0.9569,0.1720
90880,0.0144,-0.9569,0.1720
90897,0.0144,-0.9569,0.1721
90914,0.0144,-0.9569,0.1721
90936,0.0143,-0.9569,0.1721
90969,0.0143,-0.9569,0.1722
90990,0.0143,-0.9569,0.1722
91015,0.0143,-0.9569,0.1722
91036,0.0143,-0.9569,0.1722
91058,0.0143,-0.9568,0.1724
91083,0.0143,-0.9568,0.1724
91109,0.0143,-0.9568,0.1726
91131,0.0143,-0.9568,0.1727
91180,0.0143,-0.9567,0.1733
91212,0.0143,-0.9565,0.1742
91229,0.0143,-0.9563,0.1750
91251,0.0143,-0.9561,0.1761
91274,0.0143,-0.9554,0.1796
91291,0.0143,-0.9550,0.1819
91308,0.0143,-0.9543,0.1848
91330,0.0144,-0.9537,0.1884
91374,0.0146,-0.9510,0.2029
91396,0.0148,-0.9500,0.2091
91420,0.0150,-0.9487,0.2161
91443,0.0153,-0.9462,0.2314
91465,0.0154,-0.9447,0.2397
91482,0.0155,-0.9432,0.2484
91520,0.0157,-0.9386,0.2747
91555,0.0157,-0.9357,0.2911
91576,0.0157,-0.9343,0.2986
91600,0.0156,-0.9331,0.3053
91623,0.0154,-0.9310,0.3160
91645,0.0153,-0.9302,0.3197
91664,0.0150,-0.9297,0.3221
91687,0.0145,-0.9294,0.3226
91709,0.0144,-0.9298,0.3204
91736,0.0139,-0.9313,0.3113
91758,0.0137,-0.9325,0.3042
91780,0.0135,-0.9341,0.2955
91805,0.0133,-0.9380,0.2738
91837,0.0132,-0.9431,0.2468
91864,0.0131,-0.9460,0.2318
91880,0.0131,-0.9491,0.2161
91903,0.0129,-0.9554,0.1835
91922,0.0129,-0.9586,0.1670
91939,0.0128,-0.9618,0.1506
91961,0.0126,-0.9648,0.1348
92001,0.0118,-0.9730,0.0916
92022,0.0116,-0.9755,0.0791
92044,0.0112,-0.9775,0.0679
92066,0.0107,-0.9811,0.0490
92089,0.0104,-0.9825,0.0414
92111,0.0101,-0.9836,0.0350
92144,0.0096,-0.9854,0.0262
92162,0.0094,-0.9858,0.0236
92218,0.0089,-0.9858,0.0233
92240,0.0089,-0.9854,0.0258
92257,0.0089,-0.9847,0.0294
92280,0.0090,-0.9828,0.0396
92302,0.0092,-0.9816,0.0460
92319,0.0094,-0.9801,0.0533
92341,0.0096,-0.9785,0.0615
92358,0.0099,-0.9768,0.0703
92403,0.0107,-0.9713,0.0996
92458,0.0118,-0.9655,0.1301
92475,0.0121,-0.9636,0.1399
92498,0.0128,-0.9601,0.1580
92520,0.0131,-0.9586,0.1659
92544,0.0135,-0.9559,0.1796
92561,0.0138,-0.9548,0.1851
92582,0.0140,-0.9540,0.1896
92608,0.0143,-0.9528,0.1959
92630,0.0144,-0.9525,0.1976
92654,0.0144,-0.9523,0.1986
92677,0.0145,-0.9524,0.1985
92699,0.0145,-0.9526,0.1975
92718,0.0144,-0.9529,0.1960
92751,0.0144,-0.9537,0.1920
92775,0.0143,-0.9547,0.1874
92806,0.0142,-0.9557,0.1826
92828,0.0140,-0.9562,0.1803
92845,0.0140,-0.9565,0.1782
92867,0.0139,-0.9569,0.1763
92890,0.0138,-0.9576,0.1731
92907,0.0138,-0.9579,0.1718
92929,0.0137,-0.9581,0.1708
92951,0.0137,-0.9583,0.1699
92968,0.0137,-0.9584,0.1694
92985,0.0137,-0.9585,0.1691
93008,0.0135,-0.9585,0.1689
93051,0.0135,-0.9584,0.1694
93101,0.0135,-0.9580,0.1710
93119,0.0135,-0.9578,0.1722
93141,0.0137,-0.9576,0.1729
93163,0.0137,-0.9575,0.1735
93183,0.0137,-0.9574,0.1741
93206,0.0137,-0.9570,0.1750
93228,0.0137,-0.9570,0.1754
93273,0.0137,-0.9568,0.1764
93295,0.0137,-0.9567,0.1765
93312,0.0137,-0.9567,0.1766
93335,0.0137,-0.9567,0.1768
93357,0.0137,-0.9567,0.1768
93391,0.0137,-0.9567,0.1766
93409,0.0137,-0.9567,0.1765
93464,0.0137,-0.9568,0.1760
93487,0.0137,-0.9568,0.1757
93504,0.0137,-0.9569,0.1755
93526,0.0137,-0.9569,0.1754
93549,0.0137,-0.9570,0.1752
93571,0.0137,-0.9570,0.1750
93589,0.0137,-0.9570,0.1749
93606,0.0137,-0.9570,0.1748
93642,0.0137,-0.9572,0.1747
93665,0.0137,-0.9572,0.1747
93696,0.0137,-0.9572,0.1747
93713,0.0137,-0.9572,0.1748
93735,0.0137,-0.9572,0.1749
93757,0.0137,-0.9570,0.1750
93777,0.0137,-0.9570,0.1753
93800,0.0137,-0.9569,0.1760
93817,0.0137,-0.9568,0.1768
93852,0.0135,-0.9564,0.1786
93877,0.0135,-0.9558,0.1814
93898,0.0135,-0.9554,0.1830
93920,0.0135,-0.9551,0.1848
93942,0.0135,-0.9547,0.1869
93960,0.0135,-0.9537,0.1920
94001,0.0135,-0.9524,0.1989
94039,0.0137,-0.9507,0.2080
94062,0.0138,-0.9484,0.2197
94085,0.0139,-0.9470,0.2264
94106,0.0140,-0.9456,0.2339
94129,0.0142,-0.9425,0.2502
94146,0.0142,-0.9408,0.2589
94168,0.0143,-0.9391,0.2678
94191,0.0144,-0.9358,0.2855
94208,0.0145,-0.9341,0.2941
94226,0.0145,-0.9325,0.3022
94248,0.0146,-0.9310,0.3098
94308,0.0153,-0.9264,0.3325
94340,0.0156,-0.9253,0.3380
94357,0.0157,-0.9250,0.3390
94379,0.0157,-0.9250,0.3387
94401,0.0157,-0.9254,0.3373
94421,0.0156,-0.9268,0.3301
94443,0.0155,-0.9279,0.3243
94465,0.0153,-0.9293,0.3173
94506,0.0143,-0.9353,0.2872
94528,0.0138,-0.9377,0.2745
94545,0.0134,-0.9404,0.2607
94565,0.0129,-0.9432,0.2458
94589,0.0122,-0.9493,0.2141
94611,0.0118,-0.9525,0.1975
94642,0.0114,-0.9590,0.1641
94659,0.0112,-0.9623,0.1477
94694,0.0110,-0.9685,0.1165
94716,0.0110,-0.9714,0.1021
94741,0.0107,-0.9766,0.0762
94763,0.0106,-0.9788,0.0649
94786,0.0104,-0.9824,0.0463
94805,0.0101,-0.9838,0.0388
94827,0.0100,-0.9849,0.0327
94852,0.0098,-0.9865,0.0244
94887,0.0096,-0.9873,0.0212
94909,0.0095,-0.9875,0.0215
94957,0.0094,-0.9865,0.0303
94974,0.0094,-0.9855,0.0359
94996,0.0095,-0.9841,0.0430
95019,0.0098,-0.9803,0.0614
95036,0.0100,-0.9779,0.0724
95053,0.0103,-0.9753,0.0847
95073,0.0105,-0.9724,0.0980
95109,0.0112,-0.9662,0.1271
95132,0.0121,-0.9595,0.1586
95156,0.0125,-0.9561,0.1747
95178,0.0131,-0.9526,0.1908
95201,0.0140,-0.9462,0.2228
95218,0.0146,-0.9430,0.2382
95243,0.0153,-0.9399,0.2531
95262,0.0164,-0.9346,0.2805
95324,0.0181,-0.9282,0.3138
95341,0.0186,-0.9268,0.3224
95364,0.0194,-0.9246,0.3350
95386,0.0197,-0.9240,0.3387
95403,0.0198,-0.9237,0.3409
95425,0.0198,-0.9238,0.3412
95448,0.0194,-0.9249,0.3365
95501,0.0182,-0.9290,0.3160
95526,0.0171,-0.9332,0.2942
95558,0.0160,-0.9386,0.2670
95579,0.0155,-0.9417,0.2518
95596,0.0150,-0.9448,0.2358
95618,0.0146,-0.9481,0.2192
95639,0.0142,-0.9515,0.2023
95656,0.0138,-0.9550,0.1851
95674,0.0131,-0.9617,0.1510
95696,0.0128,-0.9648,0.1345
95731,0.0122,-0.9708,0.1038
95753,0.0118,-0.9735,0.0897
95778,0.0114,-0.9783,0.0651
95800,0.0112,-0.9803,0.0546
95823,0.0109,-0.9835,0.0374
95872,0.0104,-0.9866,0.0210
95893,0.0104,-0.9872,0.0179
95926,0.0104,-0.9875,0.0153
95948,0.0105,-0.9874,0.0157
95965,0.0106,-0.9871,0.0177
95988,0.0110,-0.9852,0.0264
96010,0.0112,-0.9838,0.0333
96027,0.0116,-0.9821,0.0424
96049,0.0120,-0.9799,0.0533
96070,0.0128,-0.9745,0.0814
96108,0.0139,-0.9679,0.1166
96130,0.0145,-0.9642,0.1362
96177,0.0164,-0.9524,0.2000
96199,0.0168,-0.9485,0.2214
96216,0.0172,-0.9446,0.2423
96239,0.0178,-0.9373,0.2811
96261,0.0179,-0.9340,0.2983
96278,0.0181,-0.9309,0.3138
96296,0.0179,-0.9283,0.3271
96319,0.0176,-0.9244,0.3470
96378,0.0165,-0.9220,0.3584
96401,0.0159,-0.9231,0.3533
96418,0.0156,-0.9244,0.3469
96440,0.0155,-0.9261,0.3383
96481,0.0148,-0.9347,0.2986
96505,0.0144,-0.9385,0.2816
96527,0.0142,-0.9424,0.2632
96582,0.0126,-0.9596,0.1812
96603,0.0122,-0.9637,0.1603
96620,0.0117,-0.9678,0.1399
96642,0.0114,-0.9716,0.1204
96665,0.0107,-0.9784,0.0846
96682,0.0104,-0.9812,0.0690
96706,0.0103,-0.9838,0.0549
96729,0.0101,-0.9874,0.0323
96764,0.0103,-0.9896,0.0177
96795,0.0106,-0.9901,0.0115
96812,0.0109,-0.9897,0.0117
96831,0.0111,-0.9890,0.0142
96852,0.0114,-0.9878,0.0188
96874,0.0116,-0.9862,0.0256
96896,0.0121,-0.9817,0.0458
96913,0.0123,-0.9790,0.0588
96933,0.0126,-0.9760,0.0739
96964,0.0131,-0.9689,0.1086
96986,0.0134,-0.9650,0.1281
97011,0.0139,-0.9567,0.1696
97033,0.0142,-0.9524,0.1909
97055,0.0144,-0.9481,0.2124
97072,0.0145,-0.9440,0.2335
97103,0.0149,-0.9360,0.2737
97120,0.0150,-0.9326,0.2917
97156,0.0153,-0.9270,0.3329
97178,0.0155,-0.9236,0.3408
97202,0.0155,-0.9230,0.3455
97225,0.0153,-0.9237,0.3439
97247,0.0150,-0.9250,0.3378
97271,0.0148,-0.9270,0.3282
97294,0.0138,-0.9327,0.3000
97316,0.0132,-0.9363,0.2821
97368,0.0112,-0.9487,0.2186
97410,0.0095,-0.9619,0.1504
97431,0.0090,-0.9661,0.1287
97451,0.0085,-0.9701,0.1080
97473,0.0081,-0.9774,0.0710
97496,0.0078,-0.9805,0.0552
97516,0.0077,-0.9833,0.0413
97541,0.0074,-0.9877,0.0193
97582,0.0073,-0.9905,0.0052
97604,0.0072,-0.9918,-0.0016
97621,0.0071,-0.9921,-0.0027
97643,0.0071,-0.9921,-0.0024
97665,0.0071,-0.9917,-0.0010
97711,0.0071,-0.9897,0.0081
97728,0.0071,-0.9889,0.0121
97757,0.0071,-0.9871,0.0208
97777,0.0071,-0.9861,0.0253
97800,0.0072,-0.9840,0.0349
97821,0.0072,-0.9829,0.0400
97841,0.0073,-0.9818,0.0454
97864,0.0073,-0.9806,0.0513
97886,0.0076,-0.9780,0.0638
97904,0.0077,-0.9766,0.0707
97955,0.0082,-0.9720,0.0935
97977,0.0084,-0.9705,0.1017
98018,0.0090,-0.9655,0.1270
98040,0.0093,-0.9639,0.1354
98057,0.0095,-0.9623,0.1437
98080,0.0100,-0.9595,0.1592
98099,0.0103,-0.9581,0.1661
98121,0.0105,-0.9570,0.1726
98144,0.0106,-0.9559,0.1783
98165,0.0110,-0.9543,0.1876
98206,0.0114,-0.9534,0.1938
98229,0.0115,-0.9529,0.1970
98253,0.0116,-0.9529,0.1976
98275,0.0116,-0.9529,0.1978
98323,0.0116,-0.9535,0.1952
98344,0.0116,-0.9541,0.1920
98366,0.0115,-0.9545,0.1902
98388,0.0115,-0.9548,0.1882
98433,0.0114,-0.9558,0.1826
98453,0.0112,-0.9562,0.1809
98476,0.0111,-0.9567,0.1780
98498,0.0111,-0.9569,0.1768
98518,0.0110,-0.9570,0.1757
98545,0.0109,-0.9573,0.1742
98565,0.0109,-0.9573,0.1737
98621,0.0107,-0.9573,0.1732
98658,0.0107,-0.9572,0.1740
98675,0.0107,-0.9570,0.1743
98696,0.0107,-0.9570,0.1748
98718,0.0107,-0.9569,0.1753
98735,0.0107,-0.9568,0.1758
98752,0.0107,-0.9567,0.1763
98775,0.0109,-0.9565,0.1772
98810,0.0109,-0.9563,0.1781
98832,0.0109,-0.9563,0.1785
98857,0.0109,-0.9562,0.1791
98879,0.0109,-0.9562,0.1793
98901,0.0110,-0.9562,0.1794
98918,0.0110,-0.9561,0.1796
98960,0.0110,-0.9561,0.1796
99001,0.0110,-0.9562,0.1794
99024,0.0110,-0.9562,0.1792
99041,0.0110,-0.9563,0.1791
99063,0.0110,-0.9563,0.1790
99086,0.0110,-0.9563,0.1787
99103,0.0110,-0.9564,0.1785
99125,0.0110,-0.9564,0.1783
99145,0.0110,-0.9564,0.1782
99191,0.0110,-0.9565,0.1779
99212,0.0110,-0.9565,0.1779
99260,0.0110,-0.9565,0.1777
99283,0.0110,-0.9565,0.1777
99300,0.0110,-0.9565,0.1777
99322,0.0110,-0.9565,0.1777
99344,0.0110,-0.9565,0.1777
99361,0.0110,-0.9565,0.1777
99379,0.0110,-0.9565,0.1779
99402,0.0110,-0.9565,0.1779
99462,0.0110,-0.9565,0.1780
99487,0.0110,-0.9565,0.1781
99509,0.0110,-0.9565,0.1781
99526,0.0110,-0.9565,0.1781
99566,0.0110,-0.9564,0.1782
99585,0.0110,-0.9564,0.1782
99607,0.0110,-0.9564,0.1782
99630,0.0110,-0.9564,0.1782
99671,0.0111,-0.9564,0.1782
99692,0.0111,-0.9564,0.1781
99716,0.0111,-0.9563,0.1781
99738,0.0111,-0.9563,0.1780
99763,0.0111,-0.9563,0.1780
99787,0.0111,-0.9563,0.1779
99810,0.0111,-0.9563,0.1779
99845,0.0111,-0.9564,0.1777
99880,0.0110,-0.9564,0.1777
99897,0.0110,-0.9564,0.1777
99915,0.0110,-0.9564,0.1777
99938,0.0110,-0.9564,0.1777
99957,0.0110,-0.9564,0.1777
99980,0.0110,-0.9565,0.1776
99997,0.0109,-0.9565,0.1777
100040,0.0109,-0.9565,0.1777
100056,0.0109,-0.9565,0.1777
100079,0.0109,-0.9565,0.1777
100099,0.0109,-0.9565,0.1777
100121,0.0109,-0.9565,0.1777
100144,0.0109,-0.9565,0.1779
100183,0.0109,-0.9565,0.1779
100201,0.0109,-0.9565,0.1779
100243,0.0109,-0.9565,0.1780
100265,0.0109,-0.9567,0.1780
100290,0.0109,-0.9567,0.1781
100312,0.0109,-0.9567,0.1781
100334,0.0109,-0.9567,0.1781
100351,0.0109,-0.9567,0.1781
100374,0.0109,-0.9567,0.1781
100399,0.0109,-0.9567,0.1781
100462,0.0109,-0.9565,0.1780
100493,0.0107,-0.9565,0.1780
100510,0.0107,-0.9565,0.1780
100527,0.0107,-0.9565,0.1780
100548,0.0107,-0.9565,0.1780
100565,0.0107,-0.9565,0.1780
100585,0.0107,-0.9564,0.1782
100603,0.0107,-0.9564,0.1785
100658,0.0107,-0.9559,0.1807
100680,0.0107,-0.9556,0.1821
100697,0.0107,-0.9552,0.1841
100719,0.0107,-0.9542,0.1895
100740,0.0107,-0.9535,0.1927
100764,0.0107,-0.9528,0.1967
100798,0.0109,-0.9502,0.2109
100816,0.0111,-0.9492,0.2166
100845,0.0112,-0.9482,0.2225
100868,0.0114,-0.9459,0.2355
100892,0.0115,-0.9447,0.2423
100915,0.0116,-0.9420,0.2567
100937,0.0116,-0.9407,0.2640
100954,0.0116,-0.9393,0.2715
100976,0.0116,-0.9380,0.2788
100999,0.0116,-0.9352,0.2927
101036,0.0116,-0.9326,0.3053
101058,0.0116,-0.9314,0.3109
101097,0.0120,-0.9286,0.3236
101114,0.0122,-0.9277,0.3263
101136,0.0125,-0.9271,0.3281
101158,0.0126,-0.9265,0.3290
101179,0.0128,-0.9258,0.3273
101201,0.0128,-0.9259,0.3243
101217,0.0128,-0.9261,0.3199
101253,0.0126,-0.9280,0.3062
101275,0.0123,-0.9296,0.2966
101300,0.0117,-0.9338,0.2726
101322,0.0114,-0.9366,0.2582
101345,0.0104,-0.9431,0.2258
101362,0.0099,-0.9467,0.2084
101400,0.0089,-0.9543,0.1722
101418,0.0084,-0.9583,0.1543
101463,0.0073,-0.9692,0.1038
101485,0.0071,-0.9727,0.0889
101502,0.0068,-0.9757,0.0752
101528,0.0066,-0.9810,0.0522
101548,0.0066,-0.9830,0.0433
101565,0.0066,-0.9846,0.0360
101584,0.0066,-0.9860,0.0306
101607,0.0067,-0.9872,0.0261
101657,0.0072,-0.9858,0.0352
101705,0.0077,-0.9805,0.0625
101722,0.0079,-0.9779,0.0751
101742,0.0081,-0.9751,0.0892
101765,0.0082,-0.9720,0.1045
101788,0.0085,-0.9653,0.1378
101810,0.0087,-0.9619,0.1554
101827,0.0089,-0.9584,0.1731
101856,0.0092,-0.9515,0.2081
101878,0.0094,-0.9482,0.2249
101903,0.0096,-0.9423,0.2554
101928,0.0098,-0.9397,0.2688
101944,0.0098,-0.9374,0.2805
101971,0.0099,-0.9336,0.2988
102008,0.0100,-0.9315,0.3091
102054,0.0105,-0.9318,0.3076
102076,0.0107,-0.9327,0.3026
102101,0.0111,-0.9360,0.2856
102123,0.0112,-0.9384,0.2742
102145,0.0114,-0.9409,0.2609
102162,0.0114,-0.9437,0.2461
102185,0.0114,-0.9501,0.2130
102207,0.0112,-0.9534,0.1953
102224,0.0110,-0.9568,0.1772
102245,0.0107,-0.9602,0.1592
102265,0.0103,-0.9668,0.1239
102309,0.0096,-0.9728,0.0916
102340,0.0090,-0.9780,0.0636
102357,0.0088,-0.9803,0.0516
102379,0.0084,-0.9823,0.0410
102402,0.0081,-0.9854,0.0244
102419,0.0079,-0.9866,0.0183
102437,0.0078,-0.9874,0.0135
102459,0.0078,-0.9880,0.0103
102511,0.0081,-0.9885,0.0088
102532,0.0084,-0.9873,0.0156
102550,0.0087,-0.9862,0.0217
102570,0.0090,-0.9846,0.0297
102590,0.0093,-0.9828,0.0397
102615,0.0099,-0.9778,0.0656
102659,0.0105,-0.9714,0.0990
102710,0.0120,-0.9557,0.1819
102733,0.0123,-0.9515,0.2041
102750,0.0127,-0.9474,0.2262
102771,0.0131,-0.9435,0.2478
102792,0.0134,-0.9397,0.2687
102810,0.0140,-0.9326,0.3063
102832,0.0142,-0.9297,0.3226
102854,0.0142,-0.9269,0.3370
102893,0.0138,-0.9213,0.3666
102915,0.0134,-0.9202,0.3715
102949,0.0127,-0.9197,0.3733
102971,0.0123,-0.9202,0.3702
102996,0.0115,-0.9227,0.3563
103018,0.0112,-0.9247,0.3456
103041,0.0107,-0.9302,0.3177
103058,0.0107,-0.9336,0.3009
103079,0.0107,-0.9374,0.2826
103101,0.0107,-0.9415,0.2631
103144,0.0110,-0.9545,0.1998
103166,0.0110,-0.9586,0.1785
103191,0.0109,-0.9664,0.1372
103213,0.0107,-0.9700,0.1179
103267,0.0101,-0.9786,0.0679
103299,0.0096,-0.9827,0.0431
103321,0.0089,-0.9852,0.0264
103340,0.0087,-0.9860,0.0216
103362,0.0083,-0.9862,0.0194
103384,0.0081,-0.9860,0.0198
103401,0.0078,-0.9852,0.0228
103424,0.0074,-0.9823,0.0371
103446,0.0073,-0.9801,0.0482
103463,0.0074,-0.9775,0.0618
103481,0.0076,-0.9746,0.0776
103504,0.0081,-0.9677,0.1152
103564,0.0096,-0.9557,0.1807
103596,0.0111,-0.9478,0.2246
103613,0.0117,-0.9440,0.2450
103636,0.0131,-0.9376,0.2791
103658,0.0137,-0.9353,0.2920
103675,0.0143,-0.9336,0.3015
103692,0.0148,-0.9325,0.3075
103714,0.0150,-0.9320,0.3098
103762,0.0154,-0.9347,0.2952
103784,0.0150,-0.9395,0.2697
103801,0.0148,-0.9424,0.2534
103822,0.0144,-0.9457,0.2354
103844,0.0140,-0.9493,0.2159
103861,0.0137,-0.9530,0.1958
103903,0.0126,-0.9644,0.1349
103956,0.0115,-0.9745,0.0813
103972,0.0112,-0.9774,0.0662
103991,0.0109,-0.9800,0.0527
104014,0.0101,-0.9841,0.0312
104036,0.0098,-0.9857,0.0231
104053,0.0094,-0.9869,0.0166
104075,0.0092,-0.9878,0.0117
104098,0.0085,-0.9889,0.0063
104136,0.0081,-0.9890,0.0059
104158,0.0078,-0.9888,0.0072
104206,0.0076,-0.9873,0.0160
104229,0.0076,-0.9856,0.0253
104246,0.0076,-0.9846,0.0310
104266,0.0077,-0.9834,0.0372
104288,0.0078,-0.9822,0.0442
104313,0.0082,-0.9792,0.0596
104336,0.0085,-0.9777,0.0681
104358,0.0088,-0.9761,0.0769
104394,0.0098,-0.9708,0.1045
104417,0.0101,-0.9690,0.1139
104444,0.0107,-0.9656,0.1320
104466,0.0111,-0.9639,0.1404
104512,0.0120,-0.9595,0.1628
104532,0.0122,-0.9583,0.1689
104554,0.0123,-0.9573,0.1743
104577,0.0127,-0.9556,0.1826
104622,0.0128,-0.9542,0.1892
104647,0.0129,-0.9540,0.1901
104669,0.0129,-0.9540,0.1902
104692,0.0128,-0.9541,0.1890
104709,0.0128,-0.9543,0.1877
104733,0.0127,-0.9546,0.1863
104756,0.0125,-0.9553,0.1826
104803,0.0123,-0.9561,0.1787
104840,0.0121,-0.9572,0.1732
104857,0.0120,-0.9574,0.1716
104879,0.0120,-0.9578,0.1703
104901,0.0118,-0.9580,0.1691
104918,0.0118,-0.9583,0.1680
104936,0.0117,-0.9585,0.1665
104958,0.0117,-0.9586,0.1660
104993,0.0118,-0.9587,0.1656
105015,0.0118,-0.9587,0.1656
105040,0.0118,-0.9587,0.1660
105062,0.0118,-0.9586,0.1664
105085,0.0120,-0.9585,0.1672
105102,0.0120,-0.9584,0.1678
105140,0.0120,-0.9581,0.1688
105158,0.0120,-0.9581,0.1693
105187,0.0121,-0.9579,0.1702
105209,0.0121,-0.9579,0.1707
105234,0.0121,-0.9578,0.1713
105256,0.0120,-0.9576,0.1715
105276,0.0120,-0.9576,0.1716
105301,0.0120,-0.9575,0.1719
105323,0.0120,-0.9575,0.1719
105348,0.0120,-0.9574,0.1719
105385,0.0118,-0.9574,0.1718
105407,0.0118,-0.9574,0.1716
105455,0.0118,-0.9574,0.1711
105472,0.0118,-0.9574,0.1710
105494,0.0118,-0.9574,0.1709
105517,0.0118,-0.9575,0.1707
105537,0.0120,-0.9575,0.1705
105563,0.0120,-0.9575,0.1704
105632,0.0121,-0.9576,0.1703
105649,0.0121,-0.9576,0.1702
105671,0.0122,-0.9576,0.1702
105693,0.0122,-0.9576,0.1703
105711,0.0122,-0.9576,0.1703
105743,0.0122,-0.9578,0.1703
105768,0.0122,-0.9578,0.1704
105808,0.0122,-0.9578,0.1704
105831,0.0122,-0.9578,0.1705
105854,0.0122,-0.9578,0.1705
105877,0.0122,-0.9578,0.1705
105901,0.0122,-0.9578,0.1705
105923,0.0122,-0.9579,0.1707
105946,0.0122,-0.9579,0.1707
105973,0.0122,-0.9579,0.1707
105992,0.0122,-0.9579,0.1707
106014,0.0122,-0.9579,0.1707
106083,0.0122,-0.9579,0.1707
106100,0.0122,-0.9579,0.1707
106123,0.0122,-0.9579,0.1707
106145,0.0122,-0.9579,0.1707
106162,0.0122,-0.9579,0.1707
106186,0.0122,-0.9579,0.1707
106209,0.0122,-0.9579,0.1705
106238,0.0122,-0.9579,0.1705
106260,0.0122,-0.9579,0.1705
106282,0.0122,-0.9579,0.1705
106305,0.0123,-0.9579,0.1705
106327,0.0123,-0.9579,0.1705
106363,0.0123,-0.9578,0.1705
106380,0.0123,-0.9578,0.1704
106397,0.0123,-0.9578,0.1704
106420,0.0123,-0.9578,0.1704
106455,0.0123,-0.9578,0.1704
106477,0.0123,-0.9578,0.1704
106504,0.0123,-0.9576,0.1705
106526,0.0123,-0.9576,0.1705
106548,0.0123,-0.9576,0.1705
106565,0.0123,-0.9576,0.1705
106588,0.0123,-0.9576,0.1707
106606,0.0122,-0.9576,0.1707
106666,0.0122,-0.9576,0.1713
106698,0.0121,-0.9575,0.1716
106715,0.0121,-0.9574,0.1721
106738,0.0121,-0.9570,0.1740
106760,0.0121,-0.9568,0.1753
106776,0.0121,-0.9564,0.1768
106802,0.0121,-0.9556,0.1808
106824,0.0121,-0.9551,0.1833
106865,0.0122,-0.9531,0.1934
106887,0.0123,-0.9524,0.1976
106904,0.0125,-0.9515,0.2024
106926,0.0125,-0.9506,0.2076
106949,0.0127,-0.9485,0.2195
106966,0.0128,-0.9473,0.2262
107007,0.0132,-0.9447,0.2404
107046,0.0135,-0.9403,0.2628
107068,0.0135,-0.9388,0.2704
107092,0.0135,-0.9374,0.2778
107115,0.0135,-0.9344,0.2920
107137,0.0135,-0.9331,0.2985
107154,0.0135,-0.9318,0.3044
107176,0.0135,-0.9307,0.3098
107199,0.0135,-0.9287,0.3186
107216,0.0135,-0.9280,0.3218
107233,0.0137,-0.9276,0.3240
107255,0.0138,-0.9275,0.3250
107298,0.0143,-0.9290,0.3197
107330,0.0145,-0.9316,0.3081
107347,0.0146,-0.9335,0.2997
107369,0.0146,-0.9357,0.2894
107387,0.0145,-0.9381,0.2776
107412,0.0142,-0.9436,0.2493
107429,0.0139,-0.9468,0.2333
107451,0.0135,-0.9500,0.2164
107494,0.0123,-0.9600,0.1632
107516,0.0120,-0.9633,0.1456
107541,0.0111,-0.9692,0.1121
107563,0.0107,-0.9719,0.0967
107585,0.0105,-0.9744,0.0825
107604,0.0103,-0.9766,0.0697
107636,0.0099,-0.9802,0.0483
107654,0.0096,-0.9818,0.0399
107699,0.0094,-0.9850,0.0238
107722,0.0095,-0.9862,0.0198
107739,0.0096,-0.9865,0.0197
107761,0.0098,-0.9866,0.0208
107781,0.0099,-0.9863,0.0232
107798,0.0101,-0.9860,0.0269
107821,0.0106,-0.9843,0.0386
107843,0.0109,-0.9829,0.0468
107894,0.0117,-0.9768,0.0808
107942,0.0127,-0.9680,0.1276
107959,0.0129,-0.9646,0.1453
107984,0.0132,-0.9611,0.1637
108000,0.0134,-0.9575,0.1824
108020,0.0140,-0.9503,0.2198
108042,0.0143,-0.9469,0.2380
108066,0.0145,-0.9435,0.2556
108102,0.0151,-0.9347,0.3022
108124,0.0153,-0.9323,0.3151
108148,0.0154,-0.9301,0.3262
108171,0.0155,-0.9270,0.3418
108193,0.0156,-0.9261,0.3459
108210,0.0157,-0.9258,0.3472
108241,0.0161,-0.9269,0.3409
108272,0.0164,-0.9302,0.3231
108301,0.0164,-0.9354,0.2950
108323,0.0164,-0.9386,0.2778
108348,0.0160,-0.9457,0.2389
108370,0.0157,-0.9496,0.2179
108392,0.0154,-0.9535,0.1964
108409,0.0151,-0.9574,0.1748
108432,0.0145,-0.9650,0.1328
108454,0.0142,-0.9685,0.1130
108492,0.0135,-0.9751,0.0773
108515,0.0131,-0.9803,0.0480
108547,0.0126,-0.9844,0.0260
108567,0.0125,-0.9860,0.0179
108589,0.0125,-0.9871,0.0118
108612,0.0125,-0.9882,0.0061
108629,0.0126,-0.9882,0.0067
108651,0.0127,-0.9875,0.0096
108676,0.0129,-0.9866,0.0150
108721,0.0140,-0.9810,0.0454
108744,0.0150,-0.9755,0.0758
108761,0.0155,-0.9723,0.0933
108781,0.0161,-0.9689,0.1118
108804,0.0166,-0.9652,0.1312
108821,0.0172,-0.9615,0.1511
108862,0.0188,-0.9504,0.2106
108912,0.0203,-0.9404,0.2637
108930,0.0206,-0.9376,0.2787
108947,0.0209,-0.9351,0.2922
108969,0.0210,-0.9327,0.3041
108992,0.0210,-0.9293,0.3224
109009,0.0209,-0.9280,0.3287
109031,0.0208,-0.9271,0.3333
109053,0.0205,-0.9266,0.3359
109070,0.0201,-0.9264,0.3369
109087,0.0199,-0.9265,0.3362
109110,0.0190,-0.9276,0.3300
109176,0.0177,-0.9332,0.2996
109200,0.0175,-0.9354,0.2886
109223,0.0173,-0.9404,0.2628
109245,0.0173,-0.9434,0.2483
109262,0.0173,-0.9463,0.2329
109290,0.0175,-0.9528,0.2006
109312,0.0173,-0.9559,0.1838
109351,0.0172,-0.9624,0.1506
109374,0.0170,-0.9684,0.1191
109391,0.0168,-0.9712,0.1044
109413,0.0167,-0.9739,0.0906
109461,0.0161,-0.9803,0.0558
109478,0.0160,-0.9821,0.0469
109495,0.0157,-0.9834,0.0397
109517,0.0156,-0.9844,0.0343
109555,0.0154,-0.9850,0.0305
109577,0.0154,-0.9843,0.0337
109604,0.0156,-0.9814,0.0472
109626,0.0159,-0.9792,0.0575
109648,0.0161,-0.9767,0.0701
109665,0.0165,-0.9735,0.0846
109691,0.0176,-0.9663,0.1194
109713,0.0182,-0.9624,0.1389
109767,0.0212,-0.9458,0.2239
109799,0.0227,-0.9379,0.2650
109816,0.0234,-0.9343,0.2839
109838,0.0240,-0.9310,0.3015
109860,0.0245,-0.9281,0.3171
109877,0.0250,-0.9257,0.3308
109894,0.0253,-0.9235,0.3422
109917,0.0253,-0.9208,0.3568
109973,0.0243,-0.9209,0.3560
109999,0.0232,-0.9240,0.3398
110019,0.0227,-0.9264,0.3275
110041,0.0221,-0.9294,0.3126
110064,0.0209,-0.9368,0.2764
110104,0.0195,-0.9452,0.2343
110125,0.0189,-0.9496,0.2120
110156,0.0176,-0.9586,0.1671
110179,0.0162,-0.9670,0.1243
110196,0.0156,-0.9709,0.1044
110218,0.0151,-0.9746,0.0858
110240,0.0145,-0.9779,0.0687
110257,0.0140,-0.9808,0.0535
110279,0.0133,-0.9856,0.0283
110300,0.0129,-0.9874,0.0186
110317,0.0127,-0.9889,0.0106
110347,0.0125,-0.9906,0.0001
110369,0.0125,-0.9911,-0.0026
110411,0.0127,-0.9906,-0.0021
110428,0.0128,-0.9900,0.0005
110449,0.0131,-0.9893,0.0040
110471,0.0133,-0.9884,0.0082
110488,0.0135,-0.9875,0.0129
110511,0.0142,-0.9855,0.0232
110528,0.0145,-0.9845,0.0284
110565,0.0151,-0.9827,0.0391
110587,0.0154,-0.9817,0.0443
110612,0.0157,-0.9799,0.0548
110634,0.0160,-0.9790,0.0601
110657,0.0164,-0.9771,0.0710
110674,0.0165,-0.9760,0.0769
110712,0.0167,-0.9738,0.0889
110731,0.0168,-0.9727,0.0951
110791,0.0171,-0.9678,0.1208
110814,0.0172,-0.9664,0.1272
110836,0.0172,-0.9652,0.1334
110859,0.0173,-0.9629,0.1451
110876,0.0175,-0.9619,0.1504
110898,0.0175,-0.9608,0.1554
110923,0.0176,-0.9591,0.1641
110972,0.0177,-0.9572,0.1733
111014,0.0177,-0.9564,0.1771
111031,0.0177,-0.9562,0.1783
111053,0.0178,-0.9559,0.1794
111073,0.0178,-0.9559,0.1794
111097,0.0178,-0.9561,0.1791
111120,0.0177,-0.9563,0.1777
111141,0.0177,-0.9565,0.1768
111178,0.0177,-0.9570,0.1746
111201,0.0177,-0.9575,0.1722
111225,0.0176,-0.9578,0.1710
111247,0.0176,-0.9580,0.1699
111270,0.0176,-0.9585,0.1681
111287,0.0176,-0.9586,0.1672
111322,0.0176,-0.9589,0.1660
111339,0.0176,-0.9590,0.1655
111370,0.0176,-0.9590,0.1649
111391,0.0176,-0.9590,0.1648
111415,0.0175,-0.9590,0.1648
111437,0.0175,-0.9589,0.1649
111459,0.0175,-0.9589,0.1650
111484,0.0175,-0.9587,0.1655
111506,0.0176,-0.9586,0.1659
111528,0.0176,-0.9585,0.1661
111568,0.0176,-0.9583,0.1670
111590,0.0176,-0.9583,0.1674
111621,0.0176,-0.9581,0.1677
111638,0.0176,-0.9580,0.1680
111660,0.0176,-0.9580,0.1681
111683,0.0177,-0.9580,0.1683
111700,0.0177,-0.9580,0.1685
111722,0.0177,-0.9579,0.1685
111740,0.0177,-0.9579,0.1686
111797,0.0177,-0.9580,0.1685
111820,0.0177,-0.9580,0.1685
111843,0.0177,-0.9580,0.1682
111865,0.0177,-0.9580,0.1682
111882,0.0177,-0.9581,0.1681
111928,0.0177,-0.9581,0.1680
111980,0.0176,-0.9583,0.1677
112013,0.0175,-0.9584,0.1676
112031,0.0175,-0.9584,0.1676
112053,0.0175,-0.9584,0.1676
112076,0.0175,-0.9585,0.1676
112093,0.0175,-0.9585,0.1676
112115,0.0175,-0.9585,0.1676
112137,0.0175,-0.9585,0.1676
112170,0.0175,-0.9585,0.1676
112193,0.0175,-0.9585,0.1676
112236,0.0175,-0.9585,0.1676
112259,0.0175,-0.9584,0.1677
112276,0.0175,-0.9584,0.1677
112298,0.0175,-0.9584,0.1677
112319,0.0175,-0.9584,0.1677
112344,0.0175,-0.9583,0.1677
112361,0.0175,-0.9583,0.1677
112383,0.0175,-0.9583,0.1678
112428,0.0176,-0.9581,0.1678
112450,0.0176,-0.9581,0.1678
112475,0.0175,-0.9581,0.1678
112497,0.0175,-0.9581,0.1678
112539,0.0175,-0.9581,0.1677
112558,0.0175,-0.9581,0.1677
112580,0.0175,-0.9583,0.1677
112603,0.0175,-0.9583,0.1677
112633,0.0173,-0.9583,0.1677
112656,0.0173,-0.9583,0.1677
112673,0.0173,-0.9584,0.1677
112695,0.0173,-0.9584,0.1677
112718,0.0173,-0.9584,0.1676
112735,0.0172,-0.9584,0.1676
112760,0.0172,-0.9584,0.1676
112783,0.0172,-0.9584,0.1676
112839,0.0172,-0.9584,0.1680
112879,0.0173,-0.9581,0.1689
112896,0.0173,-0.9580,0.1699
112919,0.0175,-0.9574,0.1727
112941,0.0175,-0.9569,0.1747
112960,0.0176,-0.9564,0.1772
112983,0.0178,-0.9551,0.1840
113005,0.0179,-0.9542,0.1881
113047,0.0183,-0.9510,0.2048
113069,0.0184,-0.9497,0.2118
113086,0.0187,-0.9482,0.2192
113108,0.0188,-0.9468,0.2272
113131,0.0192,-0.9437,0.2443
113171,0.0194,-0.9404,0.2621
113188,0.0195,-0.9388,0.2709
113226,0.0197,-0.9358,0.2875
113249,0.0197,-0.9330,0.3021
113266,0.0195,-0.9318,0.3081
113288,0.0195,-0.9308,0.3134
113307,0.0194,-0.9301,0.3174
113332,0.0193,-0.9290,0.3220
113354,0.0192,-0.9288,0.3224
113377,0.0187,-0.9293,0.3191
113416,0.0181,-0.9308,0.3101
113438,0.0177,-0.9319,0.3035
113481,0.0166,-0.9371,0.2753
113498,0.0164,-0.9395,0.2633
113520,0.0161,-0.9420,0.2501
113543,0.0159,-0.9479,0.2211
113560,0.0157,-0.9509,0.2056
113581,0.0156,-0.9542,0.1896
113598,0.0155,-0.9574,0.1735
113635,0.0151,-0.9637,0.1416
113658,0.0148,-0.9697,0.1117
113682,0.0144,-0.9724,0.0978
113704,0.0142,-0.9750,0.0848
113727,0.0134,-0.9794,0.0621
113744,0.0131,-0.9813,0.0524
113782,0.0123,-0.9843,0.0363
113799,0.0120,-0.9854,0.0300
113849,0.0111,-0.9871,0.0199
113874,0.0106,-0.9866,0.0214
113896,0.0106,-0.9858,0.0249
113918,0.0105,-0.9847,0.0304
113935,0.0106,-0.9833,0.0378
113958,0.0109,-0.9792,0.0586
113980,0.0111,-0.9767,0.0718
113997,0.0116,-0.9738,0.0867
114025,0.0126,-0.9670,0.1213
114048,0.0131,-0.9633,0.1407
114092,0.0150,-0.9509,0.2039
114128,0.0166,-0.9425,0.2473
114145,0.0175,-0.9385,0.2684
114168,0.0192,-0.9309,0.3076
114190,0.0200,-0.9276,0.3250
114209,0.0206,-0.9248,0.3402
114231,0.0211,-0.9225,0.3530
114254,0.0215,-0.9194,0.3695
114285,0.0210,-0.9191,0.3723
114306,0.0205,-0.9198,0.3683
114331,0.0199,-0.9214,0.3606
114354,0.0182,-0.9261,0.3353
114376,0.0172,-0.9294,0.3184
114393,0.0162,-0.9331,0.2990
114428,0.0142,-0.9415,0.2550
114473,0.0117,-0.9554,0.1835
114495,0.0112,-0.9600,0.1599
114512,0.0107,-0.9645,0.1372
114535,0.0101,-0.9728,0.0956
114557,0.0099,-0.9764,0.0771
114574,0.0099,-0.9796,0.0607
114597,0.0099,-0.9850,0.0336
114619,0.0100,-0.9871,0.0232
114636,0.0101,-0.9886,0.0148
114653,0.0103,-0.9899,0.0083
114675,0.0104,-0.9906,0.0037
114720,0.0111,-0.9912,-0.0006
114758,0.0116,-0.9902,0.0029
114779,0.0121,-0.9888,0.0096
114800,0.0123,-0.9878,0.0137
114822,0.0126,-0.9869,0.0181
114839,0.0128,-0.9860,0.0225
114857,0.0129,-0.9850,0.0271
114880,0.0134,-0.9830,0.0369
114933,0.0139,-0.9799,0.0533
114955,0.0142,-0.9786,0.0594
114972,0.0143,-0.9774,0.0660
114995,0.0146,-0.9747,0.0802
115017,0.0148,-0.9733,0.0878
115061,0.0153,-0.9688,0.1119
115079,0.0154,-0.9672,0.1201
115122,0.0157,-0.9642,0.1361
115144,0.0160,-0.9615,0.1509
115161,0.0161,-0.9603,0.1575
115183,0.0161,-0.9592,0.1635
115206,0.0164,-0.9574,0.1736
115223,0.0165,-0.9567,0.1775
115245,0.0165,-0.9561,0.1808
115267,0.0166,-0.9556,0.1833
115300,0.0166,-0.9551,0.1863
115321,0.0166,-0.9551,0.1866
115361,0.0166,-0.9553,0.1851
115383,0.0166,-0.9557,0.1837
115400,0.0165,-0.9559,0.1820
115423,0.0164,-0.9567,0.1782
115445,0.0164,-0.9570,0.1760
115462,0.0162,-0.9575,0.1740
115482,0.0162,-0.9579,0.1719
115505,0.0161,-0.9586,0.1681
115551,0.0161,-0.9594,0.1637
115574,0.0161,-0.9595,0.1627
115591,0.0161,-0.9596,0.1619
115613,0.0161,-0.9597,0.1614
115636,0.0161,-0.9597,0.1608
115671,0.0161,-0.9596,0.1610
115704,0.0161,-0.9595,0.1617
115726,0.0161,-0.9594,0.1622
115743,0.0161,-0.9592,0.1628
115766,0.0161,-0.9589,0.1641
115788,0.0161,-0.9587,0.1647
115804,0.0161,-0.9586,0.1653
115826,0.0161,-0.9585,0.1659
115849,0.0161,-0.9584,0.1670
115868,0.0161,-0.9583,0.1674
115886,0.0161,-0.9581,0.1677
115908,0.0161,-0.9581,0.1681
115980,0.0162,-0.9580,0.1688
116015,0.0162,-0.9580,0.1687
116035,0.0162,-0.9580,0.1686
116058,0.0162,-0.9580,0.1685
116081,0.0162,-0.9581,0.1682
116128,0.0162,-0.9583,0.1677
116153,0.0164,-0.9584,0.1676
116173,0.0164,-0.9584,0.1674
116196,0.0164,-0.9585,0.1671
116220,0.0164,-0.9585,0.1670
116242,0.0164,-0.9585,0.1669
116265,0.0164,-0.9586,0.1667
116282,0.0164,-0.9586,0.1667
116315,0.0164,-0.9586,0.1666
116337,0.0164,-0.9586,0.1666
116368,0.0164,-0.9586,0.1666
116390,0.0164,-0.9586,0.1667
116415,0.0164,-0.9587,0.1667
116437,0.0164,-0.9587,0.1667
116460,0.0164,-0.9587,0.1669
116477,0.0164,-0.9587,0.1669
116494,0.0164,-0.9587,0.1670
116516,0.0164,-0.9587,0.1670
116561,0.0164,-0.9587,0.1671
116583,0.0164,-0.9587,0.1671
116614,0.0164,-0.9587,0.1671
116631,0.0164,-0.9587,0.1672
116653,0.0164,-0.9587,0.1672
116676,0.0164,-0.9586,0.1672
116701,0.0164,-0.9586,0.1672
116724,0.0164,-0.9586,0.1672
116769,0.0162,-0.9585,0.1672
116792,0.0162,-0.9585,0.1672
116808,0.0162,-0.9585,0.1672
116830,0.0162,-0.9585,0.1672
116852,0.0162,-0.9585,0.1672
116877,0.0162,-0.9584,0.1671
116918,0.0162,-0.9584,0.1671
116978,0.0162,-0.9584,0.1670
117003,0.0162,-0.9584,0.1670
117025,0.0161,-0.9584,0.1670
117047,0.0161,-0.9584,0.1670
117064,0.0161,-0.9584,0.1670
117087,0.0161,-0.9584,0.1670
117109,0.0161,-0.9584,0.1670
117136,0.0161,-0.9584,0.1670
117158,0.0161,-0.9584,0.1670
117180,0.0161,-0.9584,0.1670
117228,0.0161,-0.9585,0.1671
117269,0.0161,-0.9585,0.1671
117286,0.0161,-0.9585,0.1671
117308,0.0161,-0.9585,0.1671
117329,0.0161,-0.9586,0.1671
117362,0.0162,-0.9586,0.1671
117385,0.0162,-0.9586,0.1671
117402,0.0162,-0.9586,0.1671
117424,0.0161,-0.9586,0.1671
117447,0.0161,-0.9586,0.1671
117464,0.0161,-0.9586,0.1671
117486,0.0161,-0.9586,0.1671
117508,0.0160,-0.9586,0.1670
117525,0.0160,-0.9586,0.1670
117566,0.0159,-0.9586,0.1669
117611,0.0159,-0.9586,0.1669
117634,0.0157,-0.9586,0.1669
117651,0.0157,-0.9586,0.1669
117673,0.0157,-0.9586,0.1669
117696,0.0157,-0.9586,0.1667
117719,0.0157,-0.9586,0.1667
117744,0.0159,-0.9586,0.1669
117766,0.0159,-0.9586,0.1669
117803,0.0159,-0.9586,0.1669
117822,0.0160,-0.9586,0.1669
117869,0.0160,-0.9586,0.1669
117890,0.0161,-0.9586,0.1670
117914,0.0161,-0.9586,0.1670
117936,0.0161,-0.9586,0.1670
117954,0.0161,-0.9586,0.1670
118018,0.0162,-0.9586,0.1669
118053,0.0161,-0.9586,0.1669
118069,0.0161,-0.9586,0.1669
118092,0.0161,-0.9586,0.1669
118111,0.0161,-0.9586,0.1669
118133,0.0161,-0.9586,0.1669
118177,0.0161,-0.9585,0.1667
118219,0.0161,-0.9585,0.1667
118239,0.0162,-0.9585,0.1667
118260,0.0162,-0.9585,0.1666
118281,0.0162,-0.9585,0.1666
118302,0.0162,-0.9585,0.1666
118327,0.0162,-0.9585,0.1667
118348,0.0162,-0.9585,0.1667
118365,0.0162,-0.9585,0.1667
118396,0.0162,-0.9586,0.1667
118418,0.0162,-0.9586,0.1667
118443,0.0162,-0.9586,0.1667
118474,0.0162,-0.9586,0.1667
118496,0.0162,-0.9586,0.1667
118513,0.0162,-0.9587,0.1667
118536,0.0162,-0.9587,0.1667
118560,0.0162,-0.9587,0.1667
118590,0.0162,-0.9587,0.1667
118609,0.0162,-0.9587,0.1667
118635,0.0162,-0.9587,0.1667
118654,0.0162,-0.9587,0.1667
118677,0.0162,-0.9587,0.1667
118700,0.0162,-0.9587,0.1667
118722,0.0162,-0.9587,0.1667
118744,0.0162,-0.9587,0.1667
118775,0.0162,-0.9587,0.1667
118808,0.0162,-0.9586,0.1667
118828,0.0162,-0.9586,0.1666
118852,0.0162,-0.9586,0.1666
118871,0.0162,-0.9586,0.1666
118892,0.0162,-0.9586,0.1666
118908,0.0162,-0.9586,0.1667
118931,0.0162,-0.9586,0.1667
118951,0.0162,-0.9585,0.1667
118974,0.0162,-0.9585,0.1667
118992,0.0162,-0.9585,0.1667
119015,0.0162,-0.9585,0.1667
119079,0.0161,-0.9585,0.1669
119113,0.0161,-0.9585,0.1669
119130,0.0161,-0.9585,0.1670
119151,0.0161,-0.9586,0.1670
119171,0.0161,-0.9586,0.1670
119198,0.0160,-0.9586,0.1670
119217,0.0160,-0.9586,0.1670
119238,0.0160,-0.9586,0.1670
119293,0.0160,-0.9586,0.1670
119315,0.0160,-0.9586,0.1670
119337,0.0160,-0.9586,0.1670
119360,0.0159,-0.9586,0.1670
119382,0.0159,-0.9585,0.1670
119415,0.0159,-0.9585,0.1670
119432,0.0159,-0.9585,0.1670
119477,0.0159,-0.9585,0.1670
119499,0.0160,-0.9585,0.1670
119521,0.0160,-0.9584,0.1670
119543,0.0160,-0.9584,0.1670
119562,0.0160,-0.9584,0.1670
119585,0.0160,-0.9585,0.1670
119607,0.0160,-0.9585,0.1670
119631,0.0160,-0.9585,0.1670
119669,0.0160,-0.9585,0.1671
119715,0.0160,-0.9586,0.1671
119732,0.0160,-0.9586,0.1671
119755,0.0160,-0.9586,0.1672
119775,0.0160,-0.9586,0.1672
119792,0.0160,-0.9586,0.1672
119814,0.0160,-0.9587,0.1672
119830,0.0160,-0.9587,0.1672
119875,0.0159,-0.9587,0.1672
119894,0.0159,-0.9587,0.1672
119919,0.0159,-0.9587,0.1674
119939,0.0159,-0.9587,0.1674
119959,0.0159,-0.9587,0.1674
119982,0.0159,-0.9587,0.1674
120024,0.0160,-0.9587,0.1672
120093,0.0161,-0.9587,0.1672
120115,0.0161,-0.9586,0.1672
120138,0.0162,-0.9586,0.1675
120160,0.0162,-0.9585,0.1678
120177,0.0164,-0.9584,0.1682
120200,0.0164,-0.9581,0.1694
120222,0.0164,-0.9580,0.1699
120274,0.0166,-0.9580,0.1711
120295,0.0167,-0.9581,0.1714
120328,0.0171,-0.9591,0.1719
120350,0.0182,-0.9613,0.1729
120367,0.0192,-0.9625,0.1737
120389,0.0206,-0.9634,0.1749
120411,0.0226,-0.9639,0.1768
120428,0.0250,-0.9639,0.1793
120445,0.0281,-0.9634,0.1825
120468,0.0353,-0.9603,0.1917
120513,0.0481,-0.9523,0.2115
120535,0.0524,-0.9492,0.2195
120559,0.0565,-0.9462,0.2278
120582,0.0635,-0.9413,0.2450
120628,0.0708,-0.9407,0.2703
120647,0.0723,-0.9430,0.2778
120669,0.0734,-0.9468,0.2848
120691,0.0740,-0.9519,0.2909
120721,0.0745,-0.9658,0.3002
120744,0.0741,-0.9834,0.3052
120768,0.0740,-0.9929,0.3060
120790,0.0740,-1.0027,0.3057
120812,0.0748,-1.0217,0.3018
120829,0.0759,-1.0303,0.2982
120852,0.0775,-1.0378,0.2938
120876,0.0826,-1.0492,0.2825
120913,0.0909,-1.0543,0.2681
120957,0.1100,-1.0498,0.2417
120980,0.1180,-1.0450,0.2314
121000,0.1267,-1.0391,0.2205
121022,0.1360,-1.0319,0.2087
121040,0.1543,-1.0145,0.1836
121058,0.1627,-1.0046,0.1704
121080,0.1700,-0.9943,0.1570
121145,0.1848,-0.9497,0.1019
121162,0.1841,-0.9390,0.0886
121184,0.1814,-0.9288,0.0757
121207,0.1708,-0.9111,0.0522
121243,0.1539,-0.8976,0.0326
121260,0.1438,-0.8922,0.0247
121282,0.1328,-0.8876,0.0179
121324,0.0991,-0.8751,0.0065
121345,0.0885,-0.8708,0.0056
121362,0.0787,-0.8662,0.0062
121384,0.0699,-0.8615,0.0082
121407,0.0560,-0.8513,0.0157
121424,0.0511,-0.8466,0.0210
121446,0.0479,-0.8423,0.0270
121463,0.0460,-0.8389,0.0336
121501,0.0492,-0.8358,0.0536
121545,0.0566,-0.8402,0.0651
121562,0.0614,-0.8442,0.0697
121585,0.0717,-0.8553,0.0763
121607,0.0767,-0.8621,0.0780
121624,0.0813,-0.8693,0.0787
121646,0.0853,-0.8768,0.0782
121671,0.0909,-0.8929,0.0745
121702,0.0919,-0.9104,0.0673
121724,0.0901,-0.9194,0.0627
121741,0.0867,-0.9287,0.0579
121763,0.0817,-0.9382,0.0529
121786,0.0670,-0.9575,0.0428
121803,0.0577,-0.9669,0.0382
121864,0.0117,-1.0051,0.0234
121897,-0.0139,-1.0267,0.0179
121919,-0.0264,-1.0382,0.0156
121938,-0.0380,-1.0498,0.0135
121957,-0.0485,-1.0612,0.0120
121977,-0.0576,-1.0718,0.0109
122000,-0.0712,-1.0889,0.0111
122023,-0.0757,-1.0946,0.0127
122046,-0.0797,-1.0992,0.0194
122063,-0.0793,-1.0983,0.0247
122081,-0.0774,-1.0953,0.0309
122106,-0.0739,-1.0906,0.0381
122163,-0.0454,-1.0574,0.0729
122198,-0.0250,-1.0359,0.0913
122218,-0.0144,-1.0248,0.1003
122240,-0.0039,-1.0137,0.1090
122263,0.0159,-0.9923,0.1249
122282,0.0247,-0.9825,0.1320
122304,0.0326,-0.9736,0.1382
122327,0.0454,-0.9587,0.1479
122379,0.0568,-0.9448,0.1550
122402,0.0583,-0.9423,0.1554
122425,0.0591,-0.9403,0.1534
122447,0.0582,-0.9406,0.1515
122464,0.0568,-0.9414,0.1489
122495,0.0524,-0.9449,0.1427
122513,0.0497,-0.9473,0.1394
122550,0.0437,-0.9525,0.1328
122573,0.0376,-0.9580,0.1271
122597,0.0348,-0.9606,0.1246
122619,0.0321,-0.9629,0.1226
122642,0.0276,-0.9670,0.1194
122659,0.0256,-0.9688,0.1184
122681,0.0242,-0.9701,0.1176
122712,0.0219,-0.9720,0.1167
122743,0.0209,-0.9729,0.1168
122765,0.0206,-0.9729,0.1171
122796,0.0210,-0.9725,0.1180
122813,0.0215,-0.9720,0.1187
122835,0.0220,-0.9716,0.1194
122856,0.0234,-0.9701,0.1208
122873,0.0243,-0.9694,0.1216
122894,0.0250,-0.9686,0.1223
122912,0.0259,-0.9678,0.1229
122957,0.0281,-0.9657,0.1245
122976,0.0287,-0.9651,0.1249
122999,0.0293,-0.9646,0.1252
123019,0.0302,-0.9637,0.1257
123038,0.0304,-0.9635,0.1259
123061,0.0306,-0.9633,0.1259
123103,0.0310,-0.9631,0.1256
123121,0.0309,-0.9631,0.1255
123168,0.0305,-0.9635,0.1246
123192,0.0304,-0.9637,0.1243
123215,0.0300,-0.9641,0.1237
123237,0.0298,-0.9644,0.1234
123254,0.0295,-0.9646,0.1232
123276,0.0294,-0.9648,0.1229
123299,0.0291,-0.9651,0.1227
123318,0.0288,-0.9652,0.1227
123336,0.0287,-0.9653,0.1227
123356,0.0286,-0.9655,0.1227
123437,0.0283,-0.9657,0.1230
123454,0.0283,-0.9657,0.1230
123476,0.0283,-0.9657,0.1232
123499,0.0284,-0.9657,0.1232
123516,0.0284,-0.9657,0.1230
123533,0.0284,-0.9657,0.1229
123555,0.0284,-0.9656,0.1229
123593,0.0286,-0.9656,0.1227
123616,0.0287,-0.9656,0.1226
123633,0.0287,-0.9656,0.1227
123655,0.0288,-0.9655,0.1228
123678,0.0288,-0.9655,0.1232
123709,0.0289,-0.9653,0.1235
123727,0.0289,-0.9653,0.1237
123744,0.0289,-0.9653,0.1238
123766,0.0289,-0.9653,0.1238
123803,0.0289,-0.9652,0.1239
123826,0.0289,-0.9652,0.1239
123850,0.0289,-0.9652,0.1240
123870,0.0289,-0.9652,0.1241
123892,0.0289,-0.9651,0.1243
123916,0.0289,-0.9651,0.1244
123941,0.0288,-0.9651,0.1243
123963,0.0288,-0.9651,0.1240
124000,0.0288,-0.9652,0.1237
124034,0.0287,-0.9652,0.1232
124051,0.0287,-0.9652,0.1230
124074,0.0287,-0.9652,0.1228
124096,0.0287,-0.9652,0.1228
124116,0.0287,-0.9652,0.1229
124132,0.0287,-0.9652,0.1229
124150,0.0287,-0.9651,0.1230
124206,0.0287,-0.9651,0.1232
124230,0.0286,-0.9651,0.1233
124252,0.0286,-0.9651,0.1233
124275,0.0286,-0.9651,0.1235
124292,0.0286,-0.9651,0.1235
124338,0.0286,-0.9650,0.1238
124393,0.0287,-0.9651,0.1240
124413,0.0287,-0.9651,0.1240
124430,0.0287,-0.9651,0.1241
124453,0.0287,-0.9651,0.1243
124475,0.0287,-0.9651,0.1244
124492,0.0288,-0.9651,0.1245
124514,0.0288,-0.9651,0.1246
124537,0.0288,-0.9651,0.1249
124556,0.0288,-0.9651,0.1251
124578,0.0288,-0.9651,0.1255
124601,0.0288,-0.9650,0.1263
124632,0.0289,-0.9648,0.1276
124673,0.0289,-0.9646,0.1289
124690,0.0291,-0.9645,0.1296
124712,0.0291,-0.9644,0.1304
124735,0.0293,-0.9640,0.1327
124752,0.0293,-0.9637,0.1344
124769,0.0294,-0.9635,0.1365
124791,0.0295,-0.9631,0.1390
124829,0.0298,-0.9620,0.1459
124852,0.0302,-0.9604,0.1550
124869,0.0304,-0.9595,0.1605
124890,0.0306,-0.9585,0.1666
124913,0.0310,-0.9562,0.1801
124936,0.0312,-0.9551,0.1873
124967,0.0317,-0.9529,0.2025
124984,0.0320,-0.9519,0.2102
125021,0.0325,-0.9501,0.2253
125043,0.0328,-0.9492,0.2325
125068,0.0334,-0.9478,0.2461
125090,0.0338,-0.9470,0.2523
125113,0.0345,-0.9458,0.2632
125130,0.0349,-0.9453,0.2678
125152,0.0353,-0.9448,0.2720
125178,0.0361,-0.9441,0.2781
125232,0.0369,-0.9437,0.2819
125270,0.0367,-0.9440,0.2804
125287,0.0365,-0.9443,0.2784
125310,0.0356,-0.9452,0.2720
125332,0.0352,-0.9458,0.2676
125349,0.0345,-0.9465,0.2626
125371,0.0339,-0.9473,0.2570
125388,0.0333,-0.9480,0.2510
125439,0.0317,-0.9507,0.2305
125461,0.0310,-0.9528,0.2152
125481,0.0306,-0.9540,0.2072
125503,0.0303,-0.9551,0.1986
125526,0.0295,-0.9578,0.1798
125543,0.0291,-0.9591,0.1696
125577,0.0280,-0.9623,0.1472
125616,0.0269,-0.9657,0.1229
125639,0.0256,-0.9694,0.0975
125662,0.0250,-0.9711,0.0848
125684,0.0245,-0.9729,0.0723
125707,0.0238,-0.9764,0.0481
125724,0.0234,-0.9779,0.0367
125746,0.0231,-0.9794,0.0261
125768,0.0228,-0.9807,0.0162
125785,0.0226,-0.9819,0.0072
125803,0.0220,-0.9838,-0.0081
125825,0.0217,-0.9846,-0.0142
125870,0.0211,-0.9860,-0.0258
125900,0.0209,-0.9861,-0.0273
125919,0.0206,-0.9858,-0.0265
125941,0.0205,-0.9855,-0.0242
125961,0.0205,-0.9849,-0.0204
125978,0.0205,-0.9841,-0.0153
126003,0.0206,-0.9821,-0.0011
126025,0.0209,-0.9807,0.0079
126056,0.0217,-0.9775,0.0295
126078,0.0223,-0.9758,0.0420
126103,0.0238,-0.9720,0.0696
126128,0.0247,-0.9700,0.0845
126144,0.0256,-0.9679,0.0997
126171,0.0280,-0.9635,0.1311
126202,0.0303,-0.9594,0.1619
126221,0.0314,-0.9574,0.1765
126279,0.0344,-0.9525,0.2158
126296,0.0352,-0.9512,0.2268
126319,0.0363,-0.9492,0.2449
126341,0.0366,-0.9485,0.2518
126358,0.0367,-0.9480,0.2573
126381,0.0367,-0.9474,0.2642
126401,0.0365,-0.9474,0.2655
126454,0.0359,-0.9484,0.2620
126476,0.0355,-0.9490,0.2583
126512,0.0344,-0.9515,0.2404
126534,0.0341,-0.9526,0.2319
126553,0.0334,-0.9537,0.2225
126575,0.0328,-0.9551,0.2119
126598,0.0314,-0.9579,0.1875
126615,0.0306,-0.9595,0.1740
126636,0.0298,-0.9612,0.1597
126658,0.0289,-0.9629,0.1449
126704,0.0267,-0.9681,0.0991
126727,0.0256,-0.9717,0.0695
126744,0.0251,-0.9734,0.0553
126766,0.0247,-0.9750,0.0420
126812,0.0233,-0.9792,0.0076
126831,0.0229,-0.9805,-0.0017
126853,0.0226,-0.9814,-0.0099
126876,0.0220,-0.9832,-0.0226
126907,0.0216,-0.9843,-0.0300
126929,0.0215,-0.9846,-0.0316
126946,0.0214,-0.9846,-0.0317
126968,0.0214,-0.9846,-0.0302
126988,0.0215,-0.9843,-0.0271
127013,0.0219,-0.9832,-0.0161
127037,0.0223,-0.9822,-0.0084
127060,0.0233,-0.9799,0.0109
127097,0.0248,-0.9769,0.0347
127128,0.0266,-0.9735,0.0615
127145,0.0276,-0.9717,0.0756
127167,0.0287,-0.9697,0.0898
127190,0.0305,-0.9661,0.1179
127207,0.0315,-0.9642,0.1315
127229,0.0322,-0.9625,0.1444
127247,0.0330,-0.9609,0.1567
127309,0.0347,-0.9558,0.1968
127333,0.0348,-0.9548,0.2042
127356,0.0347,-0.9532,0.2158
127378,0.0344,-0.9526,0.2200
127395,0.0343,-0.9519,0.2233
127437,0.0338,-0.9502,0.2278
127489,0.0338,-0.9492,0.2264
127510,0.0338,-0.9491,0.2247
127527,0.0338,-0.9492,0.2227
127550,0.0336,-0.9497,0.2169
127572,0.0334,-0.9502,0.2131
127589,0.0331,-0.9509,0.2089
127611,0.0327,-0.9517,0.2039
127634,0.0317,-0.9537,0.1917
127660,0.0310,-0.9550,0.1844
127683,0.0297,-0.9579,0.1674
127727,0.0282,-0.9614,0.1470
127768,0.0261,-0.9674,0.1116
127785,0.0254,-0.9695,0.0990
127807,0.0247,-0.9714,0.0862
127829,0.0240,-0.9734,0.0735
127847,0.0228,-0.9769,0.0486
127864,0.0223,-0.9785,0.0367
127886,0.0217,-0.9801,0.0255
127923,0.0209,-0.9825,0.0051
127944,0.0205,-0.9836,-0.0037
127969,0.0200,-0.9851,-0.0184
127991,0.0199,-0.9856,-0.0243
128014,0.0199,-0.9862,-0.0328
128031,0.0200,-0.9863,-0.0354
128062,0.0205,-0.9861,-0.0372
128079,0.0208,-0.9858,-0.0365
128116,0.0217,-0.9850,-0.0312
128141,0.0222,-0.9843,-0.0267
128162,0.0234,-0.9825,-0.0137
128184,0.0240,-0.9814,-0.0051
128206,0.0247,-0.9802,0.0046
128223,0.0253,-0.9788,0.0156
128246,0.0265,-0.9756,0.0408
128268,0.0271,-0.9738,0.0547
128325,0.0294,-0.9662,0.1139
128363,0.0304,-0.9625,0.1425
128380,0.0308,-0.9608,0.1558
128402,0.0311,-0.9592,0.1682
128425,0.0316,-0.9564,0.1901
128448,0.0319,-0.9552,0.1992
128470,0.0321,-0.9542,0.2072
128487,0.0323,-0.9532,0.2140
128530,0.0331,-0.9518,0.2271
128551,0.0333,-0.9515,0.2291
128568,0.0336,-0.9515,0.2301
128591,0.0338,-0.9519,0.2291
128613,0.0338,-0.9521,0.2272
128630,0.0337,-0.9526,0.2244
128672,0.0331,-0.9553,0.2101
128714,0.0323,-0.9579,0.1956
128737,0.0316,-0.9612,0.1769
128754,0.0312,-0.9629,0.1660
128776,0.0309,-0.9647,0.1544
128798,0.0306,-0.9667,0.1420
128815,0.0303,-0.9685,0.1290
128838,0.0294,-0.9722,0.1018
128860,0.0289,-0.9739,0.0880
128887,0.0280,-0.9771,0.0608
128909,0.0273,-0.9785,0.0477
128929,0.0267,-0.9797,0.0352
128960,0.0256,-0.9819,0.0125
128991,0.0245,-0.9836,-0.0067
129008,0.0239,-0.9843,-0.0148
129030,0.0234,-0.9849,-0.0219
129053,0.0226,-0.9856,-0.0322
129076,0.0223,-0.9858,-0.0356
129093,0.0221,-0.9858,-0.0378
129116,0.0221,-0.9855,-0.0381
129160,0.0223,-0.9844,-0.0330
129183,0.0232,-0.9827,-0.0221
129207,0.0237,-0.9814,-0.0143
129229,0.0244,-0.9802,-0.0051
129252,0.0260,-0.9771,0.0176
129269,0.0269,-0.9752,0.0310
129301,0.0289,-0.9714,0.0613
129319,0.0299,-0.9695,0.0778
129373,0.0331,-0.9633,0.1296
129398,0.0350,-0.9592,0.1638
129420,0.0359,-0.9573,0.1801
129439,0.0366,-0.9556,0.1953
129462,0.0378,-0.9523,0.2225
129482,0.0385,-0.9509,0.2343
129503,0.0388,-0.9496,0.2445
129520,0.0391,-0.9485,0.2532
129563,0.0397,-0.9460,0.2704
129611,0.0400,-0.9449,0.2750
129628,0.0402,-0.9448,0.2742
129650,0.0403,-0.9449,0.2722
129672,0.0404,-0.9451,0.2694
129689,0.0405,-0.9454,0.2659
129714,0.0405,-0.9463,0.2567
129736,0.0404,-0.9469,0.2515
129769,0.0402,-0.9481,0.2402
129789,0.0399,-0.9489,0.2344
129811,0.0397,-0.9506,0.2227
129832,0.0396,-0.9517,0.2168
129851,0.0394,-0.9528,0.2108
129876,0.0392,-0.9551,0.1981
129914,0.0387,-0.9573,0.1836
129929,0.0383,-0.9585,0.1753
129961,0.0374,-0.9611,0.1566
129983,0.0366,-0.9625,0.1461
130008,0.0352,-0.9656,0.1230
130030,0.0344,-0.9673,0.1108
130052,0.0336,-0.9690,0.0983
130069,0.0330,-0.9708,0.0856
130090,0.0316,-0.9744,0.0602
130112,0.0309,-0.9761,0.0479
130169,0.0292,-0.9818,0.0042
130190,0.0281,-0.9830,-0.0049
130229,0.0271,-0.9849,-0.0201
130242,0.0266,-0.9856,-0.0264
130265,0.0261,-0.9862,-0.0315
130286,0.0255,-0.9869,-0.0391
130308,0.0253,-0.9872,-0.0414
130372,0.0249,-0.9869,-0.0431
130396,0.0250,-0.9867,-0.0419
130419,0.0255,-0.9860,-0.0380
130439,0.0259,-0.9855,-0.0353
130457,0.0261,-0.9851,-0.0325
130479,0.0266,-0.9846,-0.0294
130527,0.0277,-0.9833,-0.0199
130572,0.0288,-0.9823,-0.0118
130592,0.0291,-0.9822,-0.0098
130609,0.0292,-0.9819,-0.0079
130632,0.0294,-0.9818,-0.0052
130654,0.0295,-0.9817,-0.0043
130671,0.0295,-0.9817,-0.0033
130693,0.0294,-0.9817,-0.0024
130716,0.0293,-0.9814,0.0001
130733,0.0293,-0.9812,0.0020
130750,0.0293,-0.9810,0.0044
130772,0.0293,-0.9806,0.0073
130810,0.0294,-0.9795,0.0154
130842,0.0298,-0.9779,0.0261
130863,0.0303,-0.9761,0.0393
130885,0.0305,-0.9751,0.0466
130907,0.0309,-0.9740,0.0543
130924,0.0312,-0.9729,0.0623
130949,0.0321,-0.9707,0.0782
130970,0.0325,-0.9696,0.0859
131001,0.0333,-0.9677,0.1001
131023,0.0337,-0.9668,0.1064
131048,0.0344,-0.9655,0.1172
131070,0.0347,-0.9648,0.1213
131092,0.0350,-0.9645,0.1249
131116,0.0354,-0.9639,0.1298
131156,0.0356,-0.9635,0.1320
131201,0.0359,-0.9637,0.1312
131223,0.0358,-0.9639,0.1302
131240,0.0358,-0.9641,0.1289
131260,0.0356,-0.9646,0.1255
131282,0.0355,-0.9648,0.1237
131304,0.0355,-0.9651,0.1218
131325,0.0353,-0.9656,0.1182
131347,0.0352,-0.9658,0.1165
131423,0.0347,-0.9667,0.1102
131455,0.0345,-0.9668,0.1090
131476,0.0345,-0.9668,0.1088
131494,0.0345,-0.9668,0.1085
131516,0.0345,-0.9668,0.1085
131539,0.0344,-0.9668,0.1088
131556,0.0344,-0.9667,0.1091
131573,0.0344,-0.9667,0.1095
131593,0.0344,-0.9667,0.1099
131614,0.0345,-0.9666,0.1104
131656,0.0345,-0.9664,0.1118
131678,0.0345,-0.9664,0.1123
131695,0.0347,-0.9663,0.1128
131717,0.0347,-0.9663,0.1132
131759,0.0348,-0.9662,0.1143
131778,0.0348,-0.9662,0.1145
131800,0.0348,-0.9662,0.1146
131823,0.0348,-0.9662,0.1149
131854,0.0348,-0.9662,0.1150
131876,0.0348,-0.9662,0.1149
131901,0.0348,-0.9662,0.1147
131923,0.0348,-0.9662,0.1147
131945,0.0348,-0.9662,0.1146
131963,0.0348,-0.9662,0.1145
131981,0.0348,-0.9662,0.1144
132004,0.0348,-0.9663,0.1140
132041,0.0348,-0.9663,0.1138
132072,0.0348,-0.9664,0.1136
132089,0.0348,-0.9664,0.1135
132111,0.0348,-0.9664,0.1134
132133,0.0348,-0.9664,0.1133
132150,0.0348,-0.9664,0.1133
132183,0.0348,-0.9664,0.1133
132201,0.0348,-0.9664,0.1133
132240,0.0348,-0.9664,0.1133
132259,0.0348,-0.9664,0.1134
132283,0.0348,-0.9664,0.1134
132302,0.0348,-0.9664,0.1134
132324,0.0348,-0.9664,0.1134
132349,0.0348,-0.9663,0.1135
132380,0.0348,-0.9663,0.1135
132398,0.0348,-0.9663,0.1135
132452,0.0348,-0.9663,0.1135
132475,0.0348,-0.9663,0.1135
132499,0.0347,-0.9663,0.1135
132521,0.0347,-0.9663,0.1135
132538,0.0347,-0.9663,0.1135
132561,0.0347,-0.9663,0.1135
132583,0.0347,-0.9662,0.1135
132635,0.0347,-0.9662,0.1134
132656,0.0347,-0.9662,0.1134
132692,0.0347,-0.9662,0.1134
132714,0.0347,-0.9662,0.1134
132731,0.0347,-0.9662,0.1134
132753,0.0347,-0.9663,0.1135
132776,0.0347,-0.9663,0.1135
132793,0.0347,-0.9663,0.1135
132810,0.0347,-0.9663,0.1134
132832,0.0347,-0.9663,0.1134
132877,0.0347,-0.9663,0.1134
132899,0.0345,-0.9663,0.1134
132924,0.0345,-0.9663,0.1134
132946,0.0345,-0.9663,0.1134
132992,0.0344,-0.9663,0.1134
133014,0.0344,-0.9663,0.1134
133036,0.0344,-0.9663,0.1134
133059,0.0343,-0.9663,0.1134
133090,0.0344,-0.9663,0.1134
133112,0.0344,-0.9663,0.1134
133137,0.0344,-0.9662,0.1134
133158,0.0344,-0.9662,0.1134
133180,0.0344,-0.9662,0.1134
133197,0.0345,-0.9662,0.1134
133222,0.0345,-0.9662,0.1135
133243,0.0345,-0.9662,0.1135
133274,0.0347,-0.9662,0.1135
133304,0.0347,-0.9662,0.1135
133322,0.0347,-0.9662,0.1136
133344,0.0347,-0.9663,0.1136
133366,0.0347,-0.9663,0.1136
133383,0.0347,-0.9663,0.1136
133406,0.0347,-0.9663,0.1136
133424,0.0347,-0.9663,0.1136
133486,0.0347,-0.9662,0.1136
133509,0.0347,-0.9662,0.1136
133531,0.0347,-0.9662,0.1136
133554,0.0347,-0.9662,0.1136
133571,0.0347,-0.9662,0.1136
133612,0.0347,-0.9661,0.1136
133629,0.0345,-0.9661,0.1136
133672,0.0345,-0.9661,0.1136
133693,0.0345,-0.9661,0.1136
133710,0.0345,-0.9661,0.1136
133733,0.0347,-0.9661,0.1136
133755,0.0347,-0.9661,0.1136
133772,0.0347,-0.9661,0.1136
133794,0.0347,-0.9661,0.1136
133817,0.0347,-0.9661,0.1136
133836,0.0347,-0.9662,0.1135
133858,0.0347,-0.9662,0.1135
133881,0.0347,-0.9662,0.1135
133935,0.0347,-0.9662,0.1135
133952,0.0347,-0.9662,0.1135
133974,0.0347,-0.9662,0.1135
133997,0.0347,-0.9663,0.1135
134014,0.0347,-0.9663,0.1135
134038,0.0347,-0.9663,0.1135
134061,0.0347,-0.9663,0.1134
134101,0.0347,-0.9663,0.1134
134123,0.0347,-0.9663,0.1134
134140,0.0347,-0.9663,0.1134
134163,0.0347,-0.9663,0.1134
134196,0.0347,-0.9663,0.1134
134239,0.0347,-0.9663,0.1134
134256,0.0347,-0.9663,0.1134
134287,0.0347,-0.9663,0.1133
134308,0.0347,-0.9663,0.1133
134332,0.0347,-0.9663,0.1133
134354,0.0348,-0.9663,0.1133
134377,0.0347,-0.9663,0.1133
134394,0.0347,-0.9662,0.1133
134416,0.0347,-0.9662,0.1133
134439,0.0347,-0.9662,0.1133
134496,0.0347,-0.9662,0.1133
134536,0.0347,-0.9662,0.1134
134553,0.0348,-0.9662,0.1134
134576,0.0348,-0.9662,0.1134
134598,0.0348,-0.9662,0.1134
134615,0.0348,-0.9662,0.1134
134638,0.0348,-0.9662,0.1135
134655,0.0348,-0.9663,0.1135
134704,0.0348,-0.9663,0.1136
134725,0.0348,-0.9663,0.1136
134742,0.0348,-0.9663,0.1138
134764,0.0348,-0.9664,0.1138
134787,0.0348,-0.9664,0.1138
134804,0.0348,-0.9664,0.1139
134842,0.0348,-0.9664,0.1139
134882,0.0348,-0.9664,0.1139
134905,0.0348,-0.9666,0.1139
134922,0.0348,-0.9666,0.1139
134944,0.0348,-0.9666,0.1139
134967,0.0348,-0.9664,0.1139
134984,0.0348,-0.9664,0.1139
135004,0.0348,-0.9664,0.1138
135026,0.0348,-0.9664,0.1138
135051,0.0349,-0.9664,0.1138
135068,0.0349,-0.9664,0.1138
135090,0.0349,-0.9664,0.1136
135135,0.0349,-0.9664,0.1136
135176,0.0349,-0.9664,0.1136
135197,0.0349,-0.9664,0.1136
135219,0.0349,-0.9664,0.1136
135240,0.0349,-0.9664,0.1136
135266,0.0349,-0.9664,0.1136
135287,0.0349,-0.9664,0.1138
135309,0.0349,-0.9664,0.1138
135340,0.0349,-0.9663,0.1138
135363,0.0349,-0.9663,0.1138
135380,0.0349,-0.9663,0.1138
135402,0.0349,-0.9663,0.1138
135424,0.0349,-0.9663,0.1138
135441,0.0350,-0.9663,0.1138
135472,0.0350,-0.9662,0.1138
135490,0.0350,-0.9662,0.1138
135545,0.0350,-0.9662,0.1138
135568,0.0350,-0.9662,0.1138
135590,0.0350,-0.9662,0.1138
135613,0.0350,-0.9662,0.1138
135630,0.0350,-0.9663,0.1138
135652,0.0349,-0.9663,0.1138
135675,0.0349,-0.9663,0.1136
135727,0.0349,-0.9663,0.1136
135748,0.0349,-0.9663,0.1136
135781,0.0349,-0.9663,0.1136
135803,0.0349,-0.9663,0.1136
135820,0.0349,-0.9663,0.1136
135843,0.0349,-0.9663,0.1136
135865,0.0349,-0.9663,0.1136
135882,0.0349,-0.9663,0.1136
135899,0.0349,-0.9662,0.1135
135921,0.0349,-0.9662,0.1135
135966,0.0349,-0.9662,0.1135
135989,0.0349,-0.9662,0.1135
136013,0.0349,-0.9662,0.1135
136035,0.0349,-0.9662,0.1135
136083,0.0349,-0.9663,0.1134
136102,0.0349,-0.9663,0.1134
136125,0.0349,-0.9663,0.1134
136147,0.0349,-0.9663,0.1134
136178,0.0349,-0.9664,0.1134
136211,0.0349,-0.9664,0.1134
136236,0.0349,-0.9664,0.1134
136255,0.0349,-0.9664,0.1134
136274,0.0349,-0.9664,0.1134
136292,0.0349,-0.9664,0.1134
136315,0.0349,-0.9664,0.1135
136338,0.0349,-0.9664,0.1135
136369,0.0349,-0.9664,0.1135
136400,0.0349,-0.9663,0.1135
136417,0.0349,-0.9663,0.1135
136439,0.0349,-0.9663,0.1135
136461,0.0349,-0.9663,0.1135
136478,0.0349,-0.9663,0.1135
136501,0.0348,-0.9663,0.1135
136520,0.0348,-0.9663,0.1135
136585,0.0348,-0.9663,0.1135
136608,0.0348,-0.9663,0.1135
136631,0.0348,-0.9663,0.1135
136653,0.0348,-0.9663,0.1135
136670,0.0348,-0.9663,0.1135
136701,0.0348,-0.9663,0.1135
136718,0.0348,-0.9663,0.1135
136767,0.0349,-0.9664,0.1135
136788,0.0349,-0.9664,0.1135
136805,0.0349,-0.9664,0.1135
136827,0.0349,-0.9664,0.1135
136850,0.0349,-0.9664,0.1135
136867,0.0349,-0.9664,0.1135
136889,0.0349,-0.9664,0.1135
136912,0.0349,-0.9664,0.1135
136945,0.0349,-0.9664,0.1135
136967,0.0349,-0.9664,0.1135
137010,0.0349,-0.9663,0.1134
137032,0.0349,-0.9663,0.1134
137049,0.0348,-0.9663,0.1134
137071,0.0348,-0.9663,0.1134
137092,0.0348,-0.9663,0.1134
137110,0.0348,-0.9663,0.1134
137127,0.0348,-0.9663,0.1134
137149,0.0348,-0.9663,0.1134
137194,0.0348,-0.9663,0.1134
137216,0.0348,-0.9663,0.1134
137241,0.0348,-0.9663,0.1134
137261,0.0348,-0.9663,0.1134
137311,0.0348,-0.9663,0.1134
137333,0.0348,-0.9664,0.1134
137356,0.0349,-0.9664,0.1134
137378,0.0349,-0.9664,0.1134
137409,0.0349,-0.9664,0.1134
137431,0.0349,-0.9664,0.1134
137448,0.0349,-0.9664,0.1134
137470,0.0349,-0.9663,0.1134
137493,0.0350,-0.9663,0.1133
137510,0.0350,-0.9663,0.1133
137535,0.0350,-0.9663,0.1133
137558,0.0349,-0.9663,0.1133
137612,0.0349,-0.9663,0.1133
137643,0.0349,-0.9663,0.1133
137660,0.0349,-0.9663,0.1133
137682,0.0349,-0.9663,0.1134
137705,0.0348,-0.9663,0.1134
137722,0.0348,-0.9663,0.1134
137739,0.0348,-0.9663,0.1134
137761,0.0348,-0.9663,0.1135
137811,0.0347,-0.9663,0.1135
137831,0.0347,-0.9663,0.1136
137848,0.0347,-0.9663,0.1136
137871,0.0347,-0.9663,0.1136
137893,0.0347,-0.9663,0.1136
137910,0.0347,-0.9663,0.1138
137952,0.0347,-0.9663,0.1138
137991,0.0347,-0.9663,0.1138
138013,0.0347,-0.9663,0.1138
138038,0.0347,-0.9664,0.1138
138060,0.0347,-0.9664,0.1138
138083,0.0347,-0.9664,0.1138
138100,0.0347,-0.9664,0.1138
138122,0.0347,-0.9664,0.1138
138141,0.0347,-0.9664,0.1138
138189,0.0347,-0.9666,0.1138
138222,0.0348,-0.9666,0.1138
138264,0.0348,-0.9666,0.1136
138283,0.0348,-0.9666,0.1136
138307,0.0348,-0.9666,0.1136
138327,0.0349,-0.9666,0.1136
138349,0.0349,-0.9666,0.1136
138371,0.0349,-0.9666,0.1136
138394,0.0349,-0.9666,0.1136
138416,0.0349,-0.9666,0.1138
138447,0.0349,-0.9666,0.1143
138469,0.0349,-0.9664,0.1150
138486,0.0349,-0.9663,0.1161
138508,0.0349,-0.9661,0.1177
138548,0.0354,-0.9650,0.1272
138565,0.0356,-0.9644,0.1322
138583,0.0360,-0.9635,0.1381
138605,0.0364,-0.9626,0.1450
138660,0.0386,-0.9576,0.1819
138683,0.0393,-0.9561,0.1929
138705,0.0399,-0.9546,0.2042
138728,0.0413,-0.9514,0.2268
138745,0.0419,-0.9500,0.2373
138767,0.0425,-0.9486,0.2469
138784,0.0428,-0.9475,0.2552
138841,0.0436,-0.9456,0.2686
138914,0.0419,-0.9490,0.2410
138931,0.0411,-0.9507,0.2278
138953,0.0402,-0.9526,0.2128
138978,0.0383,-0.9572,0.1780
139009,0.0363,-0.9620,0.1395
139031,0.0353,-0.9646,0.1200
139048,0.0343,-0.9672,0.1007
139071,0.0325,-0.9720,0.0640
139093,0.0317,-0.9742,0.0471
139110,0.0310,-0.9764,0.0316
139132,0.0303,-0.9783,0.0176
139479,0.0323,-0.9745,0.0568
139517,0.0339,-0.9703,0.0872
139538,0.0344,-0.9690,0.0962
139562,0.0349,-0.9679,0.1044
139585,0.0356,-0.9659,0.1183
139607,0.0360,-0.9652,0.1238
139624,0.0363,-0.9646,0.1283
139647,0.0367,-0.9636,0.1345
139669,0.0367,-0.9634,0.1362
139686,0.0369,-0.9633,0.1372
139704,0.0369,-0.9633,0.1373
139726,0.0369,-0.9634,0.1368
139781,0.0365,-0.9642,0.1300
139812,0.0363,-0.9650,0.1251
139829,0.0361,-0.9652,0.1227
139851,0.0360,-0.9656,0.1202
139873,0.0359,-0.9659,0.1179
139890,0.0358,-0.9662,0.1157
139912,0.0356,-0.9667,0.1119
139934,0.0355,-0.9669,0.1105
139977,0.0354,-0.9673,0.1074
139999,0.0353,-0.9674,0.1068
140016,0.0353,-0.9674,0.1066
140038,0.0353,-0.9675,0.1064
140061,0.0353,-0.9674,0.1067
140078,0.0353,-0.9674,0.1072
140119,0.0354,-0.9673,0.1082
140159,0.0354,-0.9670,0.1101
140181,0.0354,-0.9669,0.1108
140205,0.0354,-0.9668,0.1115
140238,0.0354,-0.9667,0.1127
140259,0.0354,-0.9664,0.1136
140278,0.0354,-0.9664,0.1140
140298,0.0354,-0.9664,0.1143
140318,0.0354,-0.9663,0.1146
140359,0.0354,-0.9663,0.1150
140380,0.0355,-0.9663,0.1150
140419,0.0355,-0.9662,0.1152
140443,0.0355,-0.9661,0.1161
140465,0.0356,-0.9659,0.1169
140490,0.0358,-0.9655,0.1199
140512,0.0359,-0.9651,0.1221
140537,0.0364,-0.9644,0.1279
140574,0.0369,-0.9633,0.1357
140597,0.0372,-0.9628,0.1404
140624,0.0378,-0.9614,0.1510
140646,0.0382,-0.9608,0.1570
140669,0.0389,-0.9592,0.1694
140686,0.0393,-0.9585,0.1757
140724,0.0398,-0.9570,0.1873
140742,0.0399,-0.9564,0.1920
140789,0.0400,-0.9554,0.1998
140810,0.0399,-0.9554,0.1995
140834,0.0394,-0.9562,0.1937
140856,0.0389,-0.9569,0.1882
140873,0.0385,-0.9578,0.1809
140895,0.0378,-0.9590,0.1718
140918,0.0365,-0.9619,0.1490
140935,0.0356,-0.9636,0.1359
140958,0.0349,-0.9653,0.1217
140980,0.0341,-0.9673,0.1069
141030,0.0317,-0.9730,0.0625
141071,0.0299,-0.9779,0.0255
141088,0.0295,-0.9791,0.0162
141110,0.0292,-0.9801,0.0090
141133,0.0289,-0.9811,0.0006
141152,0.0289,-0.9812,-0.0004
141174,0.0292,-0.9810,0.0006
141197,0.0297,-0.9799,0.0084
141227,0.0302,-0.9790,0.0149
141250,0.0312,-0.9768,0.0316
141267,0.0319,-0.9755,0.0414
141289,0.0325,-0.9741,0.0516
141309,0.0332,-0.9727,0.0623
141334,0.0344,-0.9700,0.0833
141365,0.0356,-0.9675,0.1024
141382,0.0361,-0.9664,0.1110
141419,0.0371,-0.9646,0.1249
141441,0.0375,-0.9639,0.1302
141464,0.0380,-0.9630,0.1377
141486,0.0381,-0.9628,0.1399
141508,0.0382,-0.9626,0.1411
141526,0.0382,-0.9626,0.1410
141548,0.0382,-0.9629,0.1398
141570,0.0382,-0.9631,0.1381
141625,0.0376,-0.9645,0.1281
141673,0.0372,-0.9652,0.1224
141691,0.0370,-0.9659,0.1172
141713,0.0367,-0.9663,0.1149
141735,0.0366,-0.9666,0.1128
141752,0.0365,-0.9668,0.1108
141775,0.0363,-0.9672,0.1080
141793,0.0361,-0.9672,0.1071
141847,0.0360,-0.9674,0.1055
141871,0.0360,-0.9673,0.1055
141894,0.0360,-0.9672,0.1060
141916,0.0360,-0.9672,0.1064
141933,0.0360,-0.9670,0.1071
141977,0.0361,-0.9667,0.1091
142031,0.0364,-0.9664,0.1113
142054,0.0365,-0.9662,0.1127
142071,0.0365,-0.9662,0.1132
142093,0.0366,-0.9661,0.1136
142115,0.0366,-0.9661,0.1140
142132,0.0366,-0.9659,0.1144
142155,0.0367,-0.9659,0.1149
142177,0.0367,-0.9659,0.1150
142210,0.0367,-0.9659,0.1150
142232,0.0367,-0.9659,0.1150
142250,0.0367,-0.9659,0.1149
142286,0.0366,-0.9659,0.1147
142306,0.0366,-0.9659,0.1149
142330,0.0366,-0.9658,0.1151
142353,0.0366,-0.9656,0.1168
142375,0.0366,-0.9653,0.1183
142394,0.0366,-0.9651,0.1202
142417,0.0367,-0.9644,0.1251
142439,0.0369,-0.9640,0.1283
142470,0.0371,-0.9630,0.1354
142492,0.0372,-0.9625,0.1393
142509,0.0375,-0.9619,0.1436
142532,0.0378,-0.9608,0.1525
142554,0.0381,-0.9602,0.1571
142588,0.0385,-0.9590,0.1665
142624,0.0388,-0.9580,0.1755
142646,0.0391,-0.9575,0.1797
142664,0.0396,-0.9568,0.1865
142686,0.0397,-0.9564,0.1891
142708,0.0399,-0.9563,0.1909
142725,0.0400,-0.9562,0.1917
142748,0.0404,-0.9564,0.1899
142770,0.0404,-0.9568,0.1873
142794,0.0404,-0.9573,0.1832
142810,0.0404,-0.9580,0.1779
142834,0.0400,-0.9600,0.1633
142888,0.0389,-0.9637,0.1335
142919,0.0380,-0.9668,0.1104
142936,0.0375,-0.9684,0.0983
142958,0.0369,-0.9700,0.0863
142981,0.0355,-0.9730,0.0632
143006,0.0349,-0.9744,0.0525
143029,0.0338,-0.9768,0.0341
143087,0.0323,-0.9792,0.0157
143110,0.0317,-0.9799,0.0109
143127,0.0316,-0.9799,0.0107
143149,0.0316,-0.9797,0.0121
143171,0.0316,-0.9794,0.0146
143188,0.0317,-0.9788,0.0187
143219,0.0322,-0.9773,0.0297
143236,0.0325,-0.9763,0.0364
143267,0.0333,-0.9742,0.0516
143289,0.0338,-0.9731,0.0598
143312,0.0347,-0.9709,0.0762
143335,0.0352,-0.9700,0.0841
143358,0.0361,-0.9679,0.0989
143375,0.0365,-0.9670,0.1055
143397,0.0370,-0.9663,0.1115
143419,0.0374,-0.9656,0.1167
143460,0.0381,-0.9642,0.1278
143482,0.0382,-0.9639,0.1300
143531,0.0385,-0.9637,0.1323
143554,0.0385,-0.9639,0.1312
143571,0.0383,-0.9641,0.1300
143593,0.0382,-0.9644,0.1284
143615,0.0381,-0.9646,0.1267
143656,0.0377,-0.9653,0.1207
143678,0.0376,-0.9656,0.1188
143698,0.0375,-0.9658,0.1168
143721,0.0374,-0.9663,0.1133
143743,0.0372,-0.9664,0.1118
143767,0.0371,-0.9666,0.1106
143790,0.0370,-0.9668,0.1085
143828,0.0369,-0.9669,0.1074
143882,0.0369,-0.9670,0.1071
143899,0.0369,-0.9670,0.1072
143922,0.0369,-0.9669,0.1078
143944,0.0369,-0.9669,0.1082
143961,0.0370,-0.9669,0.1086
143984,0.0370,-0.9668,0.1097
144005,0.0370,-0.9668,0.1102
144022,0.0371,-0.9667,0.1108
144039,0.0371,-0.9667,0.1113
144061,0.0371,-0.9667,0.1118
144118,0.0372,-0.9664,0.1138
144159,0.0372,-0.9662,0.1151
144176,0.0372,-0.9661,0.1161
144199,0.0374,-0.9657,0.1187
144221,0.0375,-0.9655,0.1202
144240,0.0376,-0.9652,0.1222
144266,0.0378,-0.9645,0.1267
144289,0.0380,-0.9641,0.1293
144321,0.0383,-0.9634,0.1355
144342,0.0386,-0.9629,0.1390
144367,0.0391,-0.9619,0.1469
144389,0.0394,-0.9614,0.1510
144412,0.0400,-0.9604,0.1599
144445,0.0405,-0.9596,0.1687
144462,0.0408,-0.9591,0.1729
144484,0.0410,-0.9587,0.1766
144515,0.0413,-0.9580,0.1831
144536,0.0413,-0.9576,0.1855
144561,0.0413,-0.9574,0.1881
144583,0.0410,-0.9574,0.1881
144605,0.0409,-0.9575,0.1870
144622,0.0406,-0.9579,0.1848
144645,0.0400,-0.9589,0.1769
144662,0.0397,-0.9596,0.1710
144707,0.0386,-0.9613,0.1469
144759,0.0360,-0.9661,0.1141
144779,0.0353,-0.9675,0.1019
144801,0.0344,-0.9690,0.0894
144824,0.0330,-0.9720,0.0645
144841,0.0322,-0.9735,0.0527
144866,0.0316,-0.9749,0.0419
144888,0.0310,-0.9761,0.0321
144935,0.0298,-0.9789,0.0116
144960,0.0294,-0.9796,0.0063
144982,0.0294,-0.9796,0.0065
145005,0.0298,-0.9792,0.0115
145022,0.0302,-0.9786,0.0162
145068,0.0310,-0.9772,0.0294
145122,0.0333,-0.9729,0.0647
145144,0.0339,-0.9717,0.0740
145161,0.0345,-0.9706,0.0833
145183,0.0352,-0.9695,0.0920
145206,0.0361,-0.9674,0.1078
145223,0.0366,-0.9666,0.1146
145245,0.0370,-0.9657,0.1206
145267,0.0374,-0.9651,0.1257
145287,0.0378,-0.9641,0.1331
145309,0.0381,-0.9637,0.1354
145329,0.0381,-0.9635,0.1368
145360,0.0382,-0.9634,0.1376
145391,0.0381,-0.9636,0.1357
145408,0.0381,-0.9637,0.1340
145430,0.0380,-0.9640,0.1321
145453,0.0377,-0.9646,0.1274
145470,0.0376,-0.9648,0.1250
145491,0.0375,-0.9652,0.1226
145513,0.0374,-0.9656,0.1202
145559,0.0370,-0.9663,0.1139
145580,0.0369,-0.9666,0.1122
145605,0.0367,-0.9669,0.1095
145627,0.0367,-0.9670,0.1085
145650,0.0366,-0.9672,0.1074
145667,0.0366,-0.9672,0.1072
145698,0.0367,-0.9672,0.1073
145715,0.0367,-0.9672,0.1077
145753,0.0369,-0.9669,0.1089
145775,0.0369,-0.9668,0.1097
145800,0.0370,-0.9666,0.1119
145821,0.0371,-0.9663,0.1132
145843,0.0371,-0.9662,0.1145
145870,0.0372,-0.9657,0.1173
145892,0.0374,-0.9655,0.1187
145910,0.0374,-0.9653,0.1200
145972,0.0376,-0.9647,0.1237
146007,0.0377,-0.9646,0.1248
146024,0.0378,-0.9646,0.1252
146047,0.0380,-0.9644,0.1265
146069,0.0380,-0.9642,0.1274
146093,0.0382,-0.9639,0.1304
146110,0.0383,-0.9636,0.1323
146132,0.0385,-0.9633,0.1346
146175,0.0389,-0.9619,0.1438
146198,0.0391,-0.9614,0.1473
146215,0.0392,-0.9609,0.1509
146237,0.0394,-0.9604,0.1545
146260,0.0397,-0.9596,0.1615
146280,0.0398,-0.9591,0.1646
146312,0.0400,-0.9585,0.1697
146354,0.0402,-0.9581,0.1726
146377,0.0400,-0.9581,0.1730
146394,0.0400,-0.9583,0.1720
146416,0.0399,-0.9585,0.1702
146438,0.0398,-0.9589,0.1675
146456,0.0394,-0.9598,0.1595
146478,0.0391,-0.9606,0.1544
146500,0.0388,-0.9613,0.1484
146517,0.0385,-0.9623,0.1416
146534,0.0381,-0.9633,0.1342
146557,0.0374,-0.9655,0.1176
146602,0.0364,-0.9680,0.0995
146641,0.0349,-0.9719,0.0719
146658,0.0344,-0.9731,0.0632
146680,0.0339,-0.9744,0.0551
146703,0.0330,-0.9766,0.0406
146720,0.0326,-0.9774,0.0349
146738,0.0323,-0.9781,0.0302
146760,0.0321,-0.9786,0.0266
146809,0.0316,-0.9792,0.0236
146829,0.0317,-0.9791,0.0250
146847,0.0317,-0.9788,0.0277
146870,0.0321,-0.9775,0.0361
146892,0.0325,-0.9768,0.0416
146936,0.0334,-0.9740,0.0614
146954,0.0338,-0.9730,0.0686
147001,0.0350,-0.9700,0.0894
147025,0.0354,-0.9691,0.0957
147047,0.0358,-0.9683,0.1016
147070,0.0364,-0.9668,0.1115
147087,0.0366,-0.9662,0.1154
147109,0.0367,-0.9657,0.1187
147129,0.0370,-0.9653,0.1212
147146,0.0371,-0.9651,0.1232
147189,0.0374,-0.9647,0.1255
147211,0.0374,-0.9647,0.1252
147244,0.0374,-0.9650,0.1235
147267,0.0372,-0.9653,0.1207
147284,0.0372,-0.9656,0.1191
147306,0.0371,-0.9658,0.1174
147328,0.0370,-0.9661,0.1157
147354,0.0369,-0.9666,0.1124
147376,0.0367,-0.9668,0.1110
147399,0.0366,-0.9672,0.1083
147430,0.0365,-0.9674,0.1063
147452,0.0365,-0.9675,0.1056
147476,0.0365,-0.9675,0.1050
147499,0.0364,-0.9677,0.1044
147554,0.0364,-0.9677,0.1045
147587,0.0364,-0.9675,0.1051
147610,0.0365,-0.9674,0.1060
147633,0.0365,-0.9674,0.1064
147655,0.0365,-0.9673,0.1069
147678,0.0365,-0.9672,0.1079
147695,0.0366,-0.9670,0.1084
147717,0.0366,-0.9670,0.1088
147739,0.0366,-0.9669,0.1093
147756,0.0366,-0.9669,0.1095
147773,0.0366,-0.9668,0.1099
147796,0.0366,-0.9668,0.1102
147841,0.0366,-0.9667,0.1105
147872,0.0366,-0.9667,0.1105
147893,0.0366,-0.9667,0.1105
147915,0.0366,-0.9667,0.1104
147937,0.0366,-0.9667,0.1102
147954,0.0366,-0.9667,0.1101
147973,0.0366,-0.9667,0.1101
147995,0.0366,-0.9667,0.1101
148049,0.0365,-0.9666,0.1107
148074,0.0365,-0.9664,0.1111
148096,0.0364,-0.9664,0.1115
148118,0.0364,-0.9663,0.1117
148141,0.0363,-0.9662,0.1128
148182,0.0364,-0.9659,0.1150
148236,0.0369,-0.9645,0.1261
148259,0.0371,-0.9639,0.1304
148276,0.0374,-0.9633,0.1350
148294,0.0377,-0.9625,0.1400
148310,0.0381,-0.9618,0.1454
148337,0.0388,-0.9603,0.1564
148358,0.0392,-0.9596,0.1619
148380,0.0394,-0.9589,0.1672
148421,0.0403,-0.9570,0.1810
148443,0.0404,-0.9565,0.1846
148484,0.0405,-0.9556,0.1904
148506,0.0405,-0.9556,0.1907
148523,0.0404,-0.9556,0.1899
148545,0.0402,-0.9558,0.1884
148568,0.0397,-0.9565,0.1824
148585,0.0393,-0.9570,0.1781
148602,0.0389,-0.9578,0.1729
148624,0.0386,-0.9586,0.1667
148668,0.0372,-0.9619,0.1432
148690,0.0367,-0.9633,0.1338
148715,0.0355,-0.9662,0.1130
148737,0.0350,-0.9678,0.1018
148782,0.0332,-0.9725,0.0669
148799,0.0326,-0.9741,0.0553
148816,0.0320,-0.9757,0.0441
148838,0.0315,-0.9773,0.0333
148875,0.0306,-0.9800,0.0142
148898,0.0299,-0.9821,-0.0004
148922,0.0298,-0.9827,-0.0054
148944,0.0297,-0.9832,-0.0088
148967,0.0297,-0.9834,-0.0107
148986,0.0298,-0.9833,-0.0092
149012,0.0303,-0.9822,-0.0015
149034,0.0306,-0.9813,0.0045
149088,0.0321,-0.9779,0.0288
149122,0.0333,-0.9752,0.0481
149139,0.0338,-0.9738,0.0581
149159,0.0344,-0.9724,0.0679
149182,0.0355,-0.9698,0.0863
149199,0.0360,-0.9688,0.0946
149216,0.0365,-0.9677,0.1021
149238,0.0369,-0.9667,0.1086
149296,0.0378,-0.9645,0.1254
149318,0.0380,-0.9642,0.1271
149335,0.0381,-0.9641,0.1281
149355,0.0381,-0.9641,0.1282
149378,0.0380,-0.9644,0.1265
149395,0.0380,-0.9646,0.1248
149427,0.0376,-0.9652,0.1204
149444,0.0375,-0.9656,0.1179
149482,0.0372,-0.9663,0.1127
149504,0.0371,-0.9667,0.1101
149529,0.0367,-0.9674,0.1053
149551,0.0366,-0.9677,0.1033
149574,0.0365,-0.9681,0.0997
149591,0.0364,-0.9684,0.0983
149613,0.0363,-0.9685,0.0970
149642,0.0363,-0.9688,0.0953
149687,0.0361,-0.9689,0.0942
149733,0.0361,-0.9689,0.0944
149750,0.0363,-0.9688,0.0946
149773,0.0363,-0.9686,0.0953
149795,0.0364,-0.9686,0.0958
149812,0.0364,-0.9685,0.0963
149834,0.0364,-0.9685,0.0969
149857,0.0365,-0.9683,0.0983
149888,0.0366,-0.9681,0.0996
149910,0.0366,-0.9680,0.1002
149935,0.0367,-0.9679,0.1012
149957,0.0367,-0.9678,0.1016
149979,0.0369,-0.9678,0.1019
149996,0.0369,-0.9678,0.1022
150038,0.0369,-0.9677,0.1029
150097,0.0370,-0.9674,0.1041
150122,0.0370,-0.9673,0.1052
150144,0.0370,-0.9672,0.1060
150164,0.0370,-0.9670,0.1069
150189,0.0371,-0.9667,0.1094
150211,0.0372,-0.9664,0.1111
150234,0.0374,-0.9661,0.1150
150286,0.0377,-0.9652,0.1227
150304,0.0378,-0.9650,0.1257
150349,0.0383,-0.9640,0.1354
150370,0.0386,-0.9636,0.1387
150387,0.0387,-0.9633,0.1420
150409,0.0389,-0.9629,0.1450
150432,0.0393,-0.9623,0.1508
150449,0.0394,-0.9620,0.1531
150466,0.0396,-0.9618,0.1553
150488,0.0396,-0.9615,0.1570
150527,0.0397,-0.9612,0.1592
150550,0.0397,-0.9611,0.1598
150567,0.0396,-0.9611,0.1594
150589,0.0394,-0.9611,0.1586
150612,0.0393,-0.9614,0.1555
150651,0.0389,-0.9619,0.1505
150671,0.0388,-0.9623,0.1471
150716,0.0381,-0.9639,0.1337
150738,0.0377,-0.9645,0.1282
150763,0.0371,-0.9661,0.1157
150785,0.0367,-0.9669,0.1091
150807,0.0363,-0.9679,0.1022
150824,0.0358,-0.9689,0.0952
150846,0.0349,-0.9707,0.0813
150864,0.0344,-0.9717,0.0746
150909,0.0328,-0.9741,0.0564
150961,0.0315,-0.9760,0.0421
150985,0.0311,-0.9764,0.0383
151008,0.0304,-0.9772,0.0321
151032,0.0302,-0.9774,0.0298
151054,0.0299,-0.9777,0.0281
151073,0.0295,-0.9778,0.0270
151136,0.0295,-0.9771,0.0310
151161,0.0298,-0.9762,0.0375
151181,0.0300,-0.9756,0.0416
151201,0.0303,-0.9750,0.0461
151224,0.0309,-0.9736,0.0564
151259,0.0316,-0.9722,0.0671
151276,0.0320,-0.9714,0.0725
151325,0.0330,-0.9695,0.0874
151346,0.0333,-0.9689,0.0918
151371,0.0339,-0.9680,0.0992
151393,0.0342,-0.9675,0.1023
151415,0.0343,-0.9673,0.1049
151432,0.0345,-0.9670,0.1071
151455,0.0348,-0.9667,0.1100
151479,0.0349,-0.9666,0.1108
151510,0.0349,-0.9664,0.1115
151556,0.0349,-0.9667,0.1104
151578,0.0349,-0.9668,0.1096
151598,0.0348,-0.9669,0.1086
151621,0.0347,-0.9672,0.1067
151642,0.0347,-0.9674,0.1056
151665,0.0345,-0.9675,0.1046
151693,0.0344,-0.9678,0.1027
151724,0.0342,-0.9680,0.1010
151746,0.0342,-0.9681,0.1003
151763,0.0341,-0.9683,0.0997
151786,0.0339,-0.9684,0.0990
151808,0.0339,-0.9684,0.0988
151825,0.0339,-0.9684,0.0986
151863,0.0338,-0.9684,0.0988
151886,0.0338,-0.9684,0.0990
151903,0.0338,-0.9683,0.0991
151925,0.0338,-0.9683,0.0995
151980,0.0339,-0.9681,0.1007
152002,0.0339,-0.9681,0.1010
152019,0.0339,-0.9681,0.1012
152041,0.0339,-0.9680,0.1014
152064,0.0341,-0.9680,0.1019
152081,0.0341,-0.9680,0.1021
152099,0.0341,-0.9680,0.1022
152121,0.0341,-0.9680,0.1023
152179,0.0341,-0.9679,0.1025
152217,0.0341,-0.9679,0.1025
152239,0.0341,-0.9679,0.1025
152260,0.0341,-0.9679,0.1027
152281,0.0341,-0.9678,0.1028
152300,0.0341,-0.9678,0.1029
152318,0.0341,-0.9678,0.1031
152334,0.0341,-0.9677,0.1034
152385,0.0342,-0.9673,0.1058
152406,0.0342,-0.9672,0.1072
152423,0.0343,-0.9669,0.1089
152446,0.0345,-0.9663,0.1133
152468,0.0347,-0.9659,0.1160
152485,0.0348,-0.9657,0.1188
152516,0.0352,-0.9650,0.1251
152533,0.0354,-0.9646,0.1284
152564,0.0358,-0.9637,0.1353
152583,0.0360,-0.9634,0.1385
152607,0.0364,-0.9628,0.1447
152630,0.0366,-0.9624,0.1475
152649,0.0367,-0.9622,0.1499
152673,0.0371,-0.9618,0.1538
152693,0.0372,-0.9617,0.1552
152714,0.0374,-0.9615,0.1561
152731,0.0374,-0.9614,0.1566
152762,0.0374,-0.9615,0.1564
152784,0.0374,-0.9615,0.1555
152823,0.0370,-0.9620,0.1508
152840,0.0369,-0.9623,0.1484
152861,0.0367,-0.9625,0.1460
152883,0.0365,-0.9628,0.1433
152900,0.0363,-0.9630,0.1405
152923,0.0359,-0.9636,0.1346
152940,0.0356,-0.9640,0.1316
152977,0.0353,-0.9646,0.1257
152999,0.0350,-0.9650,0.1228
153024,0.0348,-0.9657,0.1167
153046,0.0345,-0.9661,0.1134
153069,0.0343,-0.9670,0.1060
153086,0.0342,-0.9675,0.1016
153127,0.0337,-0.9689,0.0916
153185,0.0327,-0.9723,0.0670
153212,0.0325,-0.9731,0.0603
153234,0.0319,-0.9750,0.0471
153256,0.0316,-0.9758,0.0410
153273,0.0314,-0.9767,0.0354
153295,0.0311,-0.9773,0.0306
153318,0.0308,-0.9781,0.0243
153335,0.0308,-0.9784,0.0229
153353,0.0308,-0.9784,0.0229
153374,0.0308,-0.9781,0.0244
153432,0.0317,-0.9756,0.0446
153469,0.0327,-0.9734,0.0619
153486,0.0332,-0.9720,0.0719
153508,0.0338,-0.9707,0.0825
153531,0.0350,-0.9678,0.1045
153550,0.0356,-0.9663,0.1156
153572,0.0363,-0.9648,0.1265
153594,0.0367,-0.9634,0.1370
153625,0.0378,-0.9609,0.1561
153650,0.0388,-0.9589,0.1720
153671,0.0392,-0.9580,0.1785
153694,0.0397,-0.9569,0.1881
153716,0.0398,-0.9565,0.1914
153739,0.0398,-0.9563,0.1935
153773,0.0397,-0.9562,0.1947
153790,0.0394,-0.9563,0.1937
153821,0.0388,-0.9569,0.1895
153844,0.0380,-0.9578,0.1824
153861,0.0375,-0.9584,0.1780
153882,0.0371,-0.9590,0.1731
153904,0.0366,-0.9596,0.1678
153929,0.0356,-0.9609,0.1566
153951,0.0352,-0.9617,0.1508
153973,0.0348,-0.9623,0.1449
154018,0.0334,-0.9645,0.1267
154041,0.0325,-0.9659,0.1141
154072,0.0321,-0.9668,0.1075
154089,0.0317,-0.9675,0.1008
154112,0.0310,-0.9692,0.0868
154134,0.0306,-0.9702,0.0795
154151,0.0303,-0.9711,0.0721
154174,0.0297,-0.9730,0.0573
154192,0.0294,-0.9740,0.0498
154246,0.0288,-0.9771,0.0289
154274,0.0284,-0.9788,0.0168
154296,0.0283,-0.9796,0.0116
154329,0.0282,-0.9808,0.0033
154373,0.0283,-0.9817,-0.0013
154397,0.0284,-0.9816,-0.0004
154440,0.0293,-0.9803,0.0105
154462,0.0297,-0.9795,0.0168
154479,0.0300,-0.9785,0.0245
154501,0.0306,-0.9774,0.0336
154524,0.0317,-0.9746,0.0552
154541,0.0325,-0.9730,0.0674
154563,0.0332,-0.9714,0.0804
154586,0.0347,-0.9679,0.1079
154605,0.0354,-0.9661,0.1218
154627,0.0361,-0.9644,0.1357
154644,0.0369,-0.9625,0.1493
154679,0.0383,-0.9592,0.1746
154710,0.0396,-0.9561,0.1963
154729,0.0400,-0.9547,0.2054
154752,0.0408,-0.9524,0.2197
154773,0.0409,-0.9515,0.2249
154792,0.0410,-0.9509,0.2285
154840,0.0405,-0.9508,0.2307
154862,0.0403,-0.9513,0.2286
154886,0.0394,-0.9528,0.2206
154907,0.0389,-0.9539,0.2146
154930,0.0383,-0.9551,0.2074
154955,0.0370,-0.9579,0.1895
154986,0.0354,-0.9613,0.1671
155018,0.0337,-0.9650,0.1412
155049,0.0321,-0.9686,0.1130
155070,0.0312,-0.9705,0.0986
155094,0.0305,-0.9723,0.0842
155117,0.0292,-0.9755,0.0564
155139,0.0287,-0.9769,0.0432
155156,0.0282,-0.9783,0.0309
155179,0.0273,-0.9806,0.0089
155201,0.0271,-0.9814,-0.0004
155258,0.0267,-0.9833,-0.0205
155293,0.0267,-0.9838,-0.0272
155314,0.0270,-0.9835,-0.0283
155336,0.0272,-0.9833,-0.0269
155358,0.0275,-0.9828,-0.0239
155375,0.0278,-0.9822,-0.0197
155397,0.0286,-0.9806,-0.0078
155421,0.0291,-0.9796,-0.0004
155464,0.0304,-0.9763,0.0261
155486,0.0309,-0.9751,0.0359
155503,0.0314,-0.9740,0.0457
155526,0.0323,-0.9717,0.0651
155548,0.0328,-0.9706,0.0743
155565,0.0332,-0.9696,0.0833
155599,0.0339,-0.9678,0.0990
155647,0.0347,-0.9657,0.1169
155666,0.0349,-0.9653,0.1211
155691,0.0352,-0.9647,0.1270
155711,0.0353,-0.9646,0.1287
155731,0.0353,-0.9645,0.1296
155754,0.0353,-0.9645,0.1299
155774,0.0353,-0.9647,0.1287
155795,0.0352,-0.9650,0.1273
155812,0.0352,-0.9651,0.1256
155829,0.0350,-0.9655,0.1237
155851,0.0350,-0.9657,0.1216
155919,0.0347,-0.9668,0.1127
155942,0.0345,-0.9672,0.1089
155965,0.0344,-0.9674,0.1072
155987,0.0343,-0.9677,0.1046
156010,0.0343,-0.9678,0.1036
156039,0.0343,-0.9679,0.1023
156061,0.0343,-0.9679,0.1019
156092,0.0342,-0.9679,0.1019
156114,0.0343,-0.9679,0.1021
156139,0.0343,-0.9679,0.1028
156161,0.0343,-0.9678,0.1033
156200,0.0343,-0.9677,0.1050
156218,0.0344,-0.9675,0.1056
156243,0.0344,-0.9675,0.1062
156265,0.0344,-0.9674,0.1068
156312,0.0344,-0.9673,0.1083
156344,0.0344,-0.9672,0.1089
156367,0.0344,-0.9670,0.1093
156389,0.0344,-0.9670,0.1094
156411,0.0344,-0.9670,0.1094
156427,0.0344,-0.9670,0.1094
156445,0.0344,-0.9670,0.1094
156468,0.0344,-0.9669,0.1091
156544,0.0344,-0.9670,0.1085
156561,0.0344,-0.9670,0.1083
156584,0.0344,-0.9670,0.1080
156606,0.0344,-0.9670,0.1078
156623,0.0344,-0.9670,0.1077
156651,0.0344,-0.9672,0.1074
156671,0.0344,-0.9672,0.1073
156702,0.0344,-0.9672,0.1072
156722,0.0344,-0.9672,0.1071
156746,0.0344,-0.9672,0.1069
156767,0.0344,-0.9672,0.1069
156812,0.0345,-0.9672,0.1071
156829,0.0345,-0.9672,0.1071
156852,0.0345,-0.9672,0.1072
156874,0.0345,-0.9672,0.1072
156905,0.0347,-0.9672,0.1073
156928,0.0347,-0.9672,0.1074
156944,0.0347,-0.9672,0.1075
156966,0.0347,-0.9672,0.1075
156988,0.0347,-0.9672,0.1077
157013,0.0347,-0.9670,0.1082
157032,0.0347,-0.9670,0.1085
157056,0.0347,-0.9669,0.1091
157112,0.0349,-0.9663,0.1139
157144,0.0350,-0.9657,0.1179
157161,0.0352,-0.9655,0.1204
157183,0.0353,-0.9651,0.1232
157205,0.0354,-0.9646,0.1263
157222,0.0356,-0.9642,0.1299
157245,0.0361,-0.9631,0.1382
157263,0.0364,-0.9626,0.1429
157317,0.0375,-0.9607,0.1594
157342,0.0382,-0.9594,0.1716
157363,0.0386,-0.9587,0.1779
157385,0.0389,-0.9580,0.1841
157410,0.0397,-0.9569,0.1957
157458,0.0405,-0.9554,0.2096
157513,0.0406,-0.9546,0.2174
157535,0.0405,-0.9545,0.2183
157552,0.0403,-0.9545,0.2181
157575,0.0397,-0.9550,0.2147
157597,0.0393,-0.9553,0.2112
157614,0.0388,-0.9559,0.2064
157638,0.0376,-0.9575,0.1925
157658,0.0370,-0.9585,0.1836
157698,0.0355,-0.9609,0.1620
157719,0.0341,-0.9639,0.1364
157744,0.0332,-0.9655,0.1226
157761,0.0325,-0.9672,0.1084
157784,0.0311,-0.9706,0.0798
157806,0.0305,-0.9722,0.0659
157823,0.0299,-0.9739,0.0525
157845,0.0294,-0.9753,0.0397
157868,0.0286,-0.9781,0.0168
157901,0.0280,-0.9805,-0.0016
157923,0.0278,-0.9814,-0.0089
157945,0.0277,-0.9823,-0.0148
157969,0.0277,-0.9833,-0.0216
157991,0.0278,-0.9835,-0.0223
158008,0.0280,-0.9834,-0.0212
158063,0.0291,-0.9817,-0.0072
158083,0.0302,-0.9797,0.0096
158105,0.0308,-0.9784,0.0199
158127,0.0314,-0.9771,0.0312
158158,0.0327,-0.9739,0.0560
158181,0.0342,-0.9705,0.0829
158198,0.0349,-0.9688,0.0969
158220,0.0358,-0.9669,0.1110
158242,0.0365,-0.9652,0.1251
158259,0.0372,-0.9634,0.1393
158285,0.0387,-0.9600,0.1670
158307,0.0394,-0.9583,0.1803
158372,0.0420,-0.9524,0.2271
158408,0.0430,-0.9501,0.2445
158428,0.0437,-0.9485,0.2568
158449,0.0439,-0.9480,0.2609
158470,0.0441,-0.9476,0.2634
158494,0.0438,-0.9474,0.2635
158516,0.0435,-0.9476,0.2611
158538,0.0431,-0.9481,0.2570
158583,0.0410,-0.9509,0.2336
158605,0.0400,-0.9523,0.2224
158622,0.0391,-0.9539,0.2096
158645,0.0369,-0.9575,0.1799
158664,0.0356,-0.9596,0.1636
158714,0.0321,-0.9663,0.1118
158730,0.0310,-0.9685,0.0945
158767,0.0291,-0.9728,0.0614
158787,0.0282,-0.9747,0.0461
158812,0.0269,-0.9783,0.0192
158834,0.0264,-0.9799,0.0076
158857,0.0256,-0.9824,-0.0115
158874,0.0254,-0.9834,-0.0189
158894,0.0253,-0.9843,-0.0249
158916,0.0251,-0.9850,-0.0294
158956,0.0256,-0.9857,-0.0332
158977,0.0259,-0.9855,-0.0312
159015,0.0267,-0.9844,-0.0223
159032,0.0272,-0.9835,-0.0155
159055,0.0283,-0.9812,0.0021
159077,0.0291,-0.9799,0.0125
159094,0.0297,-0.9784,0.0237
159116,0.0304,-0.9768,0.0358
159133,0.0311,-0.9751,0.0483
159171,0.0334,-0.9698,0.0895
159193,0.0342,-0.9680,0.1040
159217,0.0350,-0.9661,0.1189
159240,0.0367,-0.9623,0.1493
159262,0.0377,-0.9602,0.1644
159278,0.0386,-0.9583,0.1796
159317,0.0413,-0.9526,0.2225
159336,0.0420,-0.9509,0.2355
159383,0.0442,-0.9467,0.2681
159407,0.0447,-0.9454,0.2762
159429,0.0450,-0.9445,0.2828
159452,0.0453,-0.9432,0.2905
159473,0.0452,-0.9430,0.2913
159496,0.0448,-0.9431,0.2897
159519,0.0436,-0.9443,0.2792
159577,0.0403,-0.9485,0.2457
159628,0.0361,-0.9551,0.1949
159649,0.0333,-0.9602,0.1554
159672,0.0320,-0.9629,0.1350
159692,0.0306,-0.9656,0.1146
159711,0.0294,-0.9681,0.0947
159738,0.0273,-0.9733,0.0574
159758,0.0265,-0.9755,0.0404
159781,0.0253,-0.9795,0.0111
159812,0.0244,-0.9827,-0.0116
159834,0.0242,-0.9839,-0.0203
159851,0.0240,-0.9849,-0.0273
159873,0.0239,-0.9856,-0.0326
159896,0.0240,-0.9865,-0.0388
159933,0.0243,-0.9867,-0.0397
159967,0.0248,-0.9863,-0.0361
159987,0.0250,-0.9860,-0.0327
160005,0.0253,-0.9855,-0.0283
160028,0.0259,-0.9840,-0.0167
160050,0.0262,-0.9832,-0.0096
160074,0.0267,-0.9822,-0.0020
160097,0.0275,-0.9800,0.0155
160119,0.0280,-0.9788,0.0250
160136,0.0284,-0.9774,0.0348
160153,0.0289,-0.9761,0.0447
160176,0.0298,-0.9734,0.0646
160213,0.0308,-0.9707,0.0836
160254,0.0316,-0.9684,0.1005
160271,0.0320,-0.9674,0.1079
160294,0.0326,-0.9656,0.1201
160316,0.0328,-0.9650,0.1249
160333,0.0331,-0.9644,0.1288
160351,0.0333,-0.9640,0.1318
160384,0.0334,-0.9634,0.1353
160434,0.0336,-0.9634,0.1351
160458,0.0334,-0.9637,0.1324
160478,0.0333,-0.9641,0.1306
160501,0.0333,-0.9644,0.1285
160518,0.0332,-0.9647,0.1263
160543,0.0330,-0.9653,0.1218
160564,0.0328,-0.9656,0.1196
160617,0.0326,-0.9664,0.1140
160644,0.0325,-0.9669,0.1113
160664,0.0325,-0.9670,0.1102
160686,0.0323,-0.9673,0.1089
160710,0.0323,-0.9673,0.1085
160729,0.0323,-0.9673,0.1083
160755,0.0323,-0.9673,0.1085
160792,0.0323,-0.9672,0.1091
160814,0.0325,-0.9672,0.1096
160859,0.0326,-0.9668,0.1113
160876,0.0326,-0.9668,0.1119
160898,0.0327,-0.9667,0.1124
160921,0.0328,-0.9666,0.1135
160938,0.0328,-0.9664,0.1140
160962,0.0328,-0.9664,0.1144
160984,0.0330,-0.9663,0.1151
161015,0.0330,-0.9663,0.1155
161035,0.0330,-0.9663,0.1156
161060,0.0330,-0.9663,0.1156
161083,0.0330,-0.9663,0.1156
161105,0.0330,-0.9663,0.1156
161129,0.0330,-0.9663,0.1155
161163,0.0330,-0.9664,0.1151
161181,0.0330,-0.9664,0.1150
161212,0.0330,-0.9664,0.1146
161235,0.0330,-0.9666,0.1145
161252,0.0328,-0.9666,0.1144
161274,0.0328,-0.9666,0.1143
161297,0.0328,-0.9666,0.1140
161314,0.0328,-0.9666,0.1139
161336,0.0328,-0.9666,0.1138
161358,0.0328,-0.9666,0.1138
161416,0.0328,-0.9666,0.1136
161471,0.0328,-0.9666,0.1138
161492,0.0328,-0.9666,0.1138
161510,0.0328,-0.9666,0.1139
161532,0.0328,-0.9666,0.1139
161554,0.0328,-0.9666,0.1140
161571,0.0328,-0.9666,0.1140
161589,0.0328,-0.9666,0.1140
161612,0.0328,-0.9664,0.1141
161661,0.0330,-0.9664,0.1143
161680,0.0330,-0.9664,0.1143
161700,0.0330,-0.9664,0.1143
161719,0.0330,-0.9664,0.1143
161769,0.0330,-0.9664,0.1143
161788,0.0330,-0.9666,0.1143
161811,0.0330,-0.9666,0.1141
161833,0.0330,-0.9666,0.1141
161864,0.0330,-0.9666,0.1141
161886,0.0330,-0.9667,0.1141
161911,0.0328,-0.9667,0.1141
161933,0.0328,-0.9667,0.1141
161956,0.0328,-0.9668,0.1141
161981,0.0328,-0.9668,0.1141
162003,0.0328,-0.9668,0.1141
162026,0.0327,-0.9668,0.1144
162063,0.0328,-0.9667,0.1152
162095,0.0328,-0.9663,0.1177
162112,0.0330,-0.9661,0.1195
162134,0.0331,-0.9656,0.1221
162157,0.0334,-0.9644,0.1289
162174,0.0337,-0.9634,0.1335
162198,0.0341,-0.9623,0.1392
162221,0.0349,-0.9598,0.1530
162263,0.0361,-0.9572,0.1702
162286,0.0374,-0.9546,0.1898
162303,0.0380,-0.9534,0.2002
162325,0.0386,-0.9523,0.2106
162347,0.0392,-0.9510,0.2207
162364,0.0397,-0.9501,0.2306
162405,0.0408,-0.9475,0.2550
162463,0.0408,-0.9465,0.2679
162487,0.0402,-0.9470,0.2681
162507,0.0397,-0.9476,0.2654
162530,0.0391,-0.9484,0.2609
162547,0.0385,-0.9493,0.2544
162570,0.0369,-0.9518,0.2362
162592,0.0360,-0.9534,0.2246
162609,0.0352,-0.9550,0.2118
162626,0.0342,-0.9568,0.1976
162649,0.0325,-0.9607,0.1664
162703,0.0302,-0.9672,0.1158
162738,0.0286,-0.9714,0.0823
162758,0.0280,-0.9734,0.0662
162781,0.0266,-0.9771,0.0364
162803,0.0259,-0.9788,0.0229
162822,0.0254,-0.9802,0.0106
162844,0.0248,-0.9817,-0.0005
162867,0.0239,-0.9840,-0.0186
162898,0.0233,-0.9856,-0.0308
162920,0.0231,-0.9861,-0.0345
162945,0.0231,-0.9865,-0.0374
162967,0.0232,-0.9863,-0.0363
162987,0.0234,-0.9860,-0.0333
163004,0.0237,-0.9854,-0.0288
163034,0.0247,-0.9834,-0.0144
163052,0.0254,-0.9822,-0.0049
163089,0.0269,-0.9790,0.0183
163112,0.0286,-0.9753,0.0460
163136,0.0294,-0.9734,0.0612
163158,0.0304,-0.9713,0.0769
163181,0.0323,-0.9670,0.1096
163198,0.0333,-0.9648,0.1263
163220,0.0343,-0.9628,0.1428
163245,0.0361,-0.9587,0.1748
163282,0.0377,-0.9551,0.2041
163304,0.0386,-0.9534,0.2172
163343,0.0404,-0.9492,0.2490
163360,0.0409,-0.9481,0.2566
163382,0.0414,-0.9473,0.2627
163404,0.0417,-0.9467,0.2670
163421,0.0420,-0.9463,0.2694
163447,0.0422,-0.9464,0.2688
163469,0.0421,-0.9469,0.2655
163522,0.0397,-0.9512,0.2325
163545,0.0387,-0.9529,0.2196
163567,0.0376,-0.9547,0.2052
163590,0.0350,-0.9589,0.1726
163607,0.0337,-0.9611,0.1550
163651,0.0310,-0.9657,0.1185
163707,0.0261,-0.9749,0.0483
163728,0.0253,-0.9768,0.0330
163750,0.0244,-0.9786,0.0189
163772,0.0233,-0.9816,-0.0042
163793,0.0229,-0.9827,-0.0126
163812,0.0228,-0.9834,-0.0188
163834,0.0229,-0.9839,-0.0225
163857,0.0236,-0.9838,-0.0220
163890,0.0249,-0.9823,-0.0104
163912,0.0258,-0.9811,-0.0006
163953,0.0294,-0.9757,0.0430
163975,0.0308,-0.9734,0.0613
163998,0.0323,-0.9709,0.0809
164020,0.0353,-0.9657,0.1227
164041,0.0367,-0.9630,0.1439
164065,0.0381,-0.9603,0.1649
164083,0.0404,-0.9553,0.2040
164105,0.0413,-0.9531,0.2211
164150,0.0425,-0.9490,0.2567
164172,0.0424,-0.9485,0.2622
164196,0.0420,-0.9484,0.2642
164219,0.0408,-0.9495,0.2577
164266,0.0377,-0.9539,0.2241
164288,0.0365,-0.9558,0.2079
164307,0.0354,-0.9581,0.1897
164330,0.0330,-0.9633,0.1497
164362,0.0319,-0.9658,0.1075
164384,0.0295,-0.9708,0.0867
164419,0.0275,-0.9755,0.0474
164442,0.0265,-0.9775,0.0295
164469,0.0249,-0.9811,-0.0016
164487,0.0243,-0.9825,-0.0145
164508,0.0237,-0.9838,-0.0256
164569,0.0225,-0.9869,-0.0521
164601,0.0222,-0.9875,-0.0558
164618,0.0222,-0.9877,-0.0558
164640,0.0223,-0.9877,-0.0547
164663,0.0226,-0.9874,-0.0500
164680,0.0227,-0.9872,-0.0466
164698,0.0229,-0.9869,-0.0425
164720,0.0232,-0.9865,-0.0377
164770,0.0240,-0.9845,-0.0199
164793,0.0249,-0.9828,-0.0051
164810,0.0253,-0.9817,0.0031
164832,0.0258,-0.9806,0.0117
164854,0.0264,-0.9795,0.0206
164875,0.0275,-0.9771,0.0393
164906,0.0281,-0.9757,0.0488
164947,0.0298,-0.9719,0.0767
164969,0.0304,-0.9707,0.0853
164986,0.0309,-0.9696,0.0934
165009,0.0319,-0.9677,0.1075
165028,0.0322,-0.9668,0.1135
165050,0.0326,-0.9661,0.1187
165074,0.0332,-0.9650,0.1262
165093,0.0334,-0.9646,0.1288
165142,0.0337,-0.9642,0.1317
165161,0.0337,-0.9642,0.1313
165212,0.0336,-0.9648,0.1271
165234,0.0334,-0.9651,0.1250
165251,0.0332,-0.9655,0.1227
165274,0.0330,-0.9661,0.1178
165296,0.0328,-0.9664,0.1154
165313,0.0327,-0.9668,0.1129
165330,0.0325,-0.9670,0.1107
165353,0.0322,-0.9675,0.1071
165390,0.0321,-0.9679,0.1042
165412,0.0320,-0.9680,0.1033
165437,0.0319,-0.9681,0.1021
165459,0.0319,-0.9681,0.1019
165481,0.0319,-0.9681,0.1018
165512,0.0319,-0.9680,0.1024
165538,0.0319,-0.9679,0.1034
165560,0.0320,-0.9678,0.1040
165622,0.0321,-0.9674,0.1068
165650,0.0321,-0.9672,0.1080
165670,0.0322,-0.9672,0.1086
165691,0.0322,-0.9670,0.1091
165716,0.0322,-0.9669,0.1100
165740,0.0322,-0.9669,0.1102
165762,0.0322,-0.9669,0.1105
165804,0.0323,-0.9669,0.1108
165835,0.0322,-0.9669,0.1108
165852,0.0322,-0.9669,0.1107
165874,0.0322,-0.9669,0.1106
165897,0.0322,-0.9670,0.1104
165917,0.0322,-0.9670,0.1102
165941,0.0322,-0.9672,0.1100
165964,0.0322,-0.9672,0.1096
165995,0.0321,-0.9673,0.1093
166018,0.0321,-0.9673,0.1091
166039,0.0321,-0.9673,0.1090
166063,0.0321,-0.9674,0.1088
166085,0.0321,-0.9674,0.1086
166102,0.0321,-0.9674,0.1086
166143,0.0321,-0.9674,0.1085
166161,0.0320,-0.9674,0.1084
166192,0.0320,-0.9673,0.1084
166215,0.0320,-0.9673,0.1085
166232,0.0320,-0.9673,0.1085
166254,0.0320,-0.9673,0.1085
166277,0.0320,-0.9673,0.1086
166294,0.0320,-0.9673,0.1086
166316,0.0320,-0.9673,0.1086
166338,0.0320,-0.9673,0.1088
166379,0.0321,-0.9673,0.1089
166401,0.0321,-0.9673,0.1089
166429,0.0321,-0.9673,0.1090
166470,0.0321,-0.9673,0.1090
166489,0.0321,-0.9673,0.1090
166512,0.0321,-0.9673,0.1090
166534,0.0321,-0.9673,0.1090
166553,0.0321,-0.9673,0.1090
166572,0.0322,-0.9674,0.1090
166595,0.0322,-0.9674,0.1090
166648,0.0322,-0.9674,0.1090
166670,0.0321,-0.9674,0.1090
166692,0.0321,-0.9674,0.1090
166712,0.0321,-0.9674,0.1090
166736,0.0321,-0.9674,0.1090
166767,0.0321,-0.9674,0.1090
166785,0.0321,-0.9674,0.1090
166835,0.0321,-0.9674,0.1090
166858,0.0321,-0.9674,0.1091
166875,0.0321,-0.9674,0.1091
166897,0.0321,-0.9674,0.1091
166920,0.0321,-0.9674,0.1091
166937,0.0321,-0.9674,0.1091
166959,0.0321,-0.9674,0.1091
166983,0.0321,-0.9674,0.1091
167017,0.0321,-0.9674,0.1091
167040,0.0321,-0.9674,0.1090
167078,0.0321,-0.9674,0.1090
167095,0.0321,-0.9674,0.1090
167118,0.0321,-0.9673,0.1090
167140,0.0321,-0.9673,0.1090
167157,0.0321,-0.9673,0.1089
167179,0.0321,-0.9673,0.1089
167196,0.0321,-0.9673,0.1089
167235,0.0321,-0.9673,0.1088
167257,0.0321,-0.9673,0.1088
167281,0.0321,-0.9673,0.1088
167304,0.0321,-0.9673,0.1088
167326,0.0321,-0.9673,0.1088
167343,0.0321,-0.9674,0.1088
167377,0.0321,-0.9674,0.1088
167395,0.0321,-0.9674,0.1088
167437,0.0321,-0.9674,0.1088
167459,0.0321,-0.9674,0.1089
167476,0.0321,-0.9674,0.1089
167499,0.0321,-0.9673,0.1089
167521,0.0321,-0.9673,0.1089
167538,0.0322,-0.9673,0.1090
167560,0.0322,-0.9673,0.1090
167580,0.0322,-0.9673,0.1090
167638,0.0322,-0.9673,0.1091
167677,0.0322,-0.9673,0.1091
167692,0.0322,-0.9673,0.1091
167715,0.0322,-0.9673,0.1090
167737,0.0322,-0.9673,0.1090
167754,0.0322,-0.9673,0.1090
167777,0.0322,-0.9672,0.1090
167801,0.0322,-0.9672,0.1090
167844,0.0322,-0.9672,0.1089
167866,0.0322,-0.9672,0.1089
167883,0.0321,-0.9672,0.1089
167905,0.0321,-0.9672,0.1088
167928,0.0321,-0.9673,0.1088
167945,0.0321,-0.9673,0.1088
167983,0.0321,-0.9673,0.1088
168002,0.0320,-0.9673,0.1088
168020,0.0320,-0.9673,0.1088
168043,0.0320,-0.9674,0.1088
168089,0.0320,-0.9674,0.1088
168111,0.0320,-0.9674,0.1088
168128,0.0320,-0.9674,0.1088
168150,0.0321,-0.9674,0.1088
168173,0.0321,-0.9674,0.1088
168190,0.0321,-0.9674,0.1088
168214,0.0321,-0.9674,0.1086
168236,0.0322,-0.9674,0.1086
168275,0.0322,-0.9673,0.1086
168309,0.0323,-0.9673,0.1085
168326,0.0323,-0.9673,0.1085
168348,0.0323,-0.9673,0.1085
168371,0.0322,-0.9673,0.1085
168388,0.0322,-0.9673,0.1084
168410,0.0322,-0.9673,0.1084
168427,0.0321,-0.9673,0.1084
168445,0.0321,-0.9673,0.1085
168478,0.0323,-0.9674,0.1090
168500,0.0325,-0.9677,0.1096
168517,0.0328,-0.9679,0.1104
168540,0.0347,-0.9695,0.1128
168562,0.0365,-0.9706,0.1141
168579,0.0391,-0.9716,0.1158
168613,0.0470,-0.9730,0.1198
168631,0.0524,-0.9731,0.1222
168678,0.0743,-0.9711,0.1316
168700,0.0939,-0.9678,0.1393
168722,0.1049,-0.9661,0.1432
168743,0.1165,-0.9644,0.1470
168768,0.1394,-0.9620,0.1533
168790,0.1501,-0.9615,0.1554
168812,0.1598,-0.9614,0.1565
168865,0.1794,-0.9659,0.1472
168887,0.1781,-0.9683,0.1410
168920,0.1666,-0.9747,0.1238
168942,0.1562,-0.9790,0.1133
168959,0.1432,-0.9839,0.1016
168982,0.1096,-0.9956,0.0762
169004,0.0901,-1.0022,0.0629
169031,0.0479,-1.0159,0.0363
169053,0.0261,-1.0225,0.0233
169075,0.0049,-1.0287,0.0107
169108,-0.0342,-1.0387,-0.0126
169131,-0.0654,-1.0452,-0.0330
169148,-0.0771,-1.0470,-0.0416
169170,-0.0859,-1.0477,-0.0492
169192,-0.0914,-1.0476,-0.0552
169227,-0.0929,-1.0408,-0.0627
169261,-0.0715,-1.0302,-0.0569
169283,-0.0587,-1.0229,-0.0504
169300,-0.0432,-1.0146,-0.0413
169322,-0.0251,-1.0054,-0.0298
169345,0.0177,-0.9856,0.0002
169362,0.0421,-0.9756,0.0183
169384,0.0682,-0.9661,0.0381
169406,0.0955,-0.9572,0.0591
169423,0.1234,-0.9493,0.0809
169440,0.1516,-0.9426,0.1033
169463,0.2059,-0.9332,0.1479
169508,0.2738,-0.9307,0.2086
169539,0.2910,-0.9330,0.2257
169556,0.3051,-0.9366,0.2410
169579,0.3235,-0.9479,0.2646
169601,0.3280,-0.9546,0.2728
169624,0.3281,-0.9677,0.2814
169648,0.3242,-0.9729,0.2816
169709,0.2900,-0.9739,0.2557
169730,0.2784,-0.9678,0.2433
169754,0.2664,-0.9592,0.2289
169777,0.2421,-0.9357,0.1954
169799,0.2305,-0.9213,0.1772
169840,0.2003,-0.8734,0.1212
169858,0.1924,-0.8578,0.1033
169907,0.1763,-0.8202,0.0560
169929,0.1733,-0.8121,0.0431
169946,0.1715,-0.8069,0.0315
169968,0.1707,-0.8044,0.0216
169991,0.1705,-0.8074,0.0057
170008,0.1708,-0.8123,-0.0004
170030,0.1709,-0.8190,-0.0054
170055,0.1698,-0.8367,-0.0132
170089,0.1658,-0.8583,-0.0183
170111,0.1624,-0.8701,-0.0200
170156,0.1455,-0.9065,-0.0206
170173,0.1377,-0.9182,-0.0194
170195,0.1290,-0.9294,-0.0173
170218,0.1095,-0.9501,-0.0107
170235,0.0991,-0.9595,-0.0063
170259,0.0885,-0.9681,-0.0013
170281,0.0781,-0.9758,0.0040
170312,0.0586,-0.9882,0.0155
170335,0.0424,-0.9962,0.0264
170352,0.0359,-0.9990,0.0312
170374,0.0309,-1.0015,0.0356
170396,0.0275,-1.0038,0.0394
170413,0.0256,-1.0063,0.0424
170438,0.0269,-1.0125,0.0459
170456,0.0294,-1.0161,0.0465
170499,0.0413,-1.0308,0.0438
170521,0.0455,-1.0365,0.0417
170545,0.0492,-1.0424,0.0392
170568,0.0544,-1.0531,0.0330
170590,0.0555,-1.0579,0.0294
170607,0.0554,-1.0616,0.0259
170630,0.0518,-1.0662,0.0195
170650,0.0486,-1.0668,0.0171
170709,0.0361,-1.0613,0.0149
170747,0.0234,-1.0469,0.0226
170771,0.0200,-1.0406,0.0275
170794,0.0145,-1.0267,0.0399
170818,0.0128,-1.0193,0.0474
170840,0.0117,-1.0118,0.0555
170863,0.0114,-0.9972,0.0728
170915,0.0149,-0.9777,0.0985
170937,0.0168,-0.9722,0.1064
170954,0.0192,-0.9673,0.1139
170977,0.0244,-0.9594,0.1265
170999,0.0272,-0.9564,0.1316
171016,0.0299,-0.9540,0.1359
171063,0.0376,-0.9504,0.1434
171089,0.0399,-0.9503,0.1443
171112,0.0437,-0.9513,0.1439
171160,0.0474,-0.9547,0.1395
171180,0.0481,-0.9562,0.1373
171204,0.0486,-0.9576,0.1349
171227,0.0490,-0.9607,0.1299
171249,0.0490,-0.9622,0.1274
171266,0.0486,-0.9635,0.1250
171283,0.0482,-0.9647,0.1228
171306,0.0472,-0.9668,0.1191
171344,0.0460,-0.9681,0.1165
171375,0.0448,-0.9689,0.1149
171392,0.0442,-0.9691,0.1145
171414,0.0437,-0.9691,0.1143
171437,0.0427,-0.9690,0.1145
171454,0.0422,-0.9688,0.1150
171476,0.0420,-0.9684,0.1155
171493,0.0417,-0.9680,0.1161
171530,0.0414,-0.9672,0.1177
171553,0.0413,-0.9663,0.1194
171577,0.0413,-0.9659,0.1202
171599,0.0413,-0.9655,0.1210
171622,0.0415,-0.9648,0.1222
171639,0.0416,-0.9646,0.1226
171686,0.0420,-0.9641,0.1230
171743,0.0425,-0.9641,0.1227
171765,0.0426,-0.9641,0.1224
171786,0.0428,-0.9642,0.1219
171808,0.0428,-0.9644,0.1217
171830,0.0430,-0.9645,0.1216
171853,0.0431,-0.9646,0.1212
171875,0.0431,-0.9647,0.1211
171892,0.0431,-0.9648,0.1210
171909,0.0431,-0.9650,0.1208
171932,0.0430,-0.9651,0.1207
171988,0.0428,-0.9653,0.1208
172020,0.0427,-0.9653,0.1212
172037,0.0427,-0.9653,0.1216
172059,0.0427,-0.9652,0.1219
172082,0.0426,-0.9651,0.1229
172099,0.0426,-0.9651,0.1234
172116,0.0425,-0.9650,0.1237
172136,0.0425,-0.9648,0.1239
172174,0.0425,-0.9648,0.1240
172197,0.0425,-0.9648,0.1237
172215,0.0425,-0.9648,0.1234
172237,0.0426,-0.9648,0.1230
172256,0.0426,-0.9650,0.1226
172284,0.0426,-0.9651,0.1216
172322,0.0427,-0.9652,0.1207
172339,0.0427,-0.9653,0.1202
172370,0.0428,-0.9653,0.1195
172392,0.0428,-0.9655,0.1191
172417,0.0430,-0.9655,0.1188
172439,0.0430,-0.9655,0.1187
172472,0.0430,-0.9656,0.1187
172493,0.0430,-0.9655,0.1189
172515,0.0430,-0.9655,0.1190
172533,0.0430,-0.9655,0.1193
172575,0.0428,-0.9653,0.1200
172597,0.0428,-0.9653,0.1202
172634,0.0428,-0.9653,0.1207
172654,0.0428,-0.9652,0.1210
172678,0.0428,-0.9652,0.1213
172697,0.0428,-0.9652,0.1216
172719,0.0428,-0.9652,0.1217
172777,0.0427,-0.9651,0.1221
172800,0.0427,-0.9651,0.1221
172823,0.0427,-0.9651,0.1221
172845,0.0428,-0.9651,0.1221
172862,0.0428,-0.9651,0.1219
172884,0.0428,-0.9651,0.1219
172930,0.0428,-0.9652,0.1218
172975,0.0428,-0.9652,0.1216
172997,0.0428,-0.9652,0.1216
173014,0.0428,-0.9652,0.1215
173037,0.0428,-0.9652,0.1213
173059,0.0428,-0.9652,0.1213
173076,0.0430,-0.9652,0.1213
173098,0.0430,-0.9652,0.1213
173121,0.0430,-0.9652,0.1213
173140,0.0428,-0.9652,0.1213
173162,0.0428,-0.9652,0.1215
173185,0.0428,-0.9652,0.1215
173222,0.0428,-0.9652,0.1215
173263,0.0428,-0.9651,0.1216
173284,0.0428,-0.9651,0.1216
173305,0.0428,-0.9651,0.1216
173327,0.0428,-0.9651,0.1216
173346,0.0428,-0.9651,0.1216
173369,0.0428,-0.9650,0.1216
173391,0.0428,-0.9650,0.1216
173422,0.0428,-0.9650,0.1216
173444,0.0428,-0.9650,0.1217
173469,0.0428,-0.9648,0.1217
173491,0.0428,-0.9648,0.1217
173513,0.0428,-0.9648,0.1218
173530,0.0428,-0.9648,0.1218
173561,0.0428,-0.9648,0.1219
173578,0.0428,-0.9647,0.1221
173616,0.0428,-0.9647,0.1228
173638,0.0428,-0.9646,0.1233
173660,0.0428,-0.9645,0.1239
173682,0.0428,-0.9642,0.1257
173701,0.0428,-0.9641,0.1271
173724,0.0428,-0.9639,0.1289
173747,0.0431,-0.9631,0.1343
173772,0.0432,-0.9626,0.1379
173827,0.0437,-0.9603,0.1525
173869,0.0444,-0.9574,0.1726
173886,0.0448,-0.9562,0.1803
173908,0.0452,-0.9551,0.1882
173931,0.0459,-0.9529,0.2047
173948,0.0461,-0.9519,0.2131
173972,0.0465,-0.9509,0.2214
173995,0.0472,-0.9491,0.2373
174038,0.0480,-0.9474,0.2520
174061,0.0486,-0.9460,0.2648
174078,0.0490,-0.9454,0.2703
174100,0.0493,-0.9448,0.2751
174122,0.0496,-0.9443,0.2793
174139,0.0498,-0.9440,0.2827
174170,0.0500,-0.9434,0.2872
174187,0.0500,-0.9431,0.2882
174218,0.0496,-0.9431,0.2878
174239,0.0492,-0.9432,0.2865
174264,0.0481,-0.9438,0.2812
174286,0.0474,-0.9443,0.2773
174306,0.0459,-0.9457,0.2672
174333,0.0452,-0.9465,0.2606
174356,0.0437,-0.9487,0.2446
174380,0.0431,-0.9500,0.2350
174417,0.0419,-0.9531,0.2122
174440,0.0406,-0.9568,0.1852
174488,0.0385,-0.9633,0.1388
174508,0.0377,-0.9656,0.1226
174530,0.0370,-0.9679,0.1062
174552,0.0363,-0.9702,0.0900
174570,0.0348,-0.9747,0.0587
174587,0.0342,-0.9768,0.0441
174609,0.0337,-0.9788,0.0305
174647,0.0328,-0.9822,0.0066
174666,0.0326,-0.9835,-0.0033
174690,0.0323,-0.9854,-0.0192
174710,0.0325,-0.9860,-0.0250
174732,0.0326,-0.9865,-0.0294
174756,0.0330,-0.9867,-0.0345
174790,0.0337,-0.9863,-0.0352
174808,0.0341,-0.9860,-0.0339
174856,0.0350,-0.9841,-0.0242
174880,0.0354,-0.9833,-0.0189
174903,0.0361,-0.9812,-0.0052
174925,0.0366,-0.9800,0.0032
174942,0.0370,-0.9785,0.0128
174964,0.0374,-0.9771,0.0236
174987,0.0382,-0.9736,0.0483
175039,0.0394,-0.9678,0.0924
175061,0.0399,-0.9657,0.1082
175094,0.0409,-0.9617,0.1403
175117,0.0420,-0.9576,0.1715
175134,0.0425,-0.9557,0.1862
175156,0.0430,-0.9539,0.2000
175178,0.0436,-0.9521,0.2129
175195,0.0441,-0.9506,0.2247
175212,0.0446,-0.9491,0.2354
175235,0.0458,-0.9467,0.2529
175279,0.0474,-0.9445,0.2690
175301,0.0479,-0.9441,0.2716
175324,0.0482,-0.9441,0.2729
175348,0.0485,-0.9445,0.2716
175394,0.0480,-0.9465,0.2592
175421,0.0476,-0.9478,0.2521
175444,0.0465,-0.9506,0.2332
175489,0.0454,-0.9541,0.2086
175512,0.0441,-0.9581,0.1793
175529,0.0433,-0.9603,0.1633
175551,0.0427,-0.9626,0.1469
175573,0.0420,-0.9648,0.1299
175590,0.0411,-0.9670,0.1129
175613,0.0396,-0.9714,0.0796
175630,0.0387,-0.9735,0.0637
175678,0.0361,-0.9789,0.0211
175712,0.0347,-0.9817,-0.0016
175733,0.0341,-0.9829,-0.0110
175752,0.0334,-0.9839,-0.0190
175772,0.0330,-0.9847,-0.0258
175788,0.0326,-0.9855,-0.0311
175810,0.0321,-0.9863,-0.0382
175827,0.0320,-0.9866,-0.0399
175881,0.0323,-0.9866,-0.0391
175906,0.0328,-0.9858,-0.0334
175928,0.0332,-0.9854,-0.0292
175950,0.0337,-0.9847,-0.0238
175967,0.0342,-0.9839,-0.0172
176013,0.0363,-0.9803,0.0101
176065,0.0388,-0.9751,0.0500
176088,0.0406,-0.9706,0.0830
176105,0.0416,-0.9680,0.1011
176127,0.0426,-0.9655,0.1199
176149,0.0435,-0.9628,0.1392
176166,0.0443,-0.9600,0.1587
176189,0.0458,-0.9546,0.1971
176211,0.0464,-0.9520,0.2156
176228,0.0469,-0.9496,0.2330
176245,0.0472,-0.9475,0.2493
176267,0.0476,-0.9456,0.2642
176311,0.0482,-0.9409,0.2991
176342,0.0486,-0.9391,0.3132
176360,0.0487,-0.9387,0.3171
176382,0.0487,-0.9386,0.3190
176405,0.0486,-0.9398,0.3152
176422,0.0483,-0.9409,0.3094
176442,0.0479,-0.9425,0.3011
176464,0.0472,-0.9445,0.2903
176515,0.0446,-0.9519,0.2247
176531,0.0433,-0.9548,0.2247
176551,0.0409,-0.9609,0.1827
176573,0.0397,-0.9641,0.1606
176595,0.0386,-0.9672,0.1383
176612,0.0375,-0.9701,0.1163
176653,0.0348,-0.9779,0.0544
176693,0.0333,-0.9819,0.0197
176714,0.0323,-0.9850,-0.0085
176736,0.0320,-0.9861,-0.0199
176757,0.0316,-0.9868,-0.0294
176778,0.0314,-0.9874,-0.0372
176801,0.0310,-0.9880,-0.0475
176823,0.0309,-0.9880,-0.0503
176843,0.0308,-0.9879,-0.0518
176908,0.0311,-0.9863,-0.0465
176941,0.0316,-0.9851,-0.0386
176958,0.0319,-0.9844,-0.0333
176981,0.0327,-0.9827,-0.0198
177003,0.0332,-0.9817,-0.0115
177024,0.0337,-0.9805,-0.0018
177045,0.0350,-0.9778,0.0211
177070,0.0359,-0.9761,0.0347
177113,0.0387,-0.9703,0.0828
177135,0.0398,-0.9681,0.1011
177152,0.0410,-0.9658,0.1202
177174,0.0422,-0.9634,0.1400
177197,0.0447,-0.9584,0.1803
177214,0.0459,-0.9558,0.2002
177261,0.0492,-0.9485,0.2555
177280,0.0500,-0.9463,0.2717
177300,0.0507,-0.9442,0.2863
177322,0.0513,-0.9424,0.2992
177353,0.0518,-0.9393,0.3192
177375,0.0518,-0.9374,0.3308
177399,0.0515,-0.9370,0.3331
177421,0.0511,-0.9370,0.3331
177444,0.0502,-0.9380,0.3254
177461,0.0496,-0.9391,0.3177
177490,0.0480,-0.9423,0.2950
177512,0.0470,-0.9443,0.2803
177552,0.0447,-0.9491,0.2448
177584,0.0420,-0.9547,0.2032
177601,0.0405,-0.9578,0.1812
177624,0.0378,-0.9636,0.1359
177645,0.0365,-0.9664,0.1135
177668,0.0353,-0.9691,0.0918
177693,0.0332,-0.9741,0.0516
177713,0.0323,-0.9763,0.0336
177755,0.0308,-0.9812,-0.0101
177776,0.0306,-0.9823,-0.0210
177800,0.0305,-0.9832,-0.0300
177821,0.0306,-0.9843,-0.0424
177843,0.0309,-0.9845,-0.0460
177883,0.0312,-0.9846,-0.0483
177902,0.0317,-0.9843,-0.0449
177956,0.0323,-0.9828,-0.0304
177980,0.0326,-0.9821,-0.0233
178003,0.0331,-0.9803,-0.0059
178025,0.0333,-0.9792,0.0045
178042,0.0336,-0.9780,0.0160
178064,0.0339,-0.9767,0.0286
178087,0.0349,-0.9736,0.0569
178139,0.0370,-0.9679,0.1067
178188,0.0399,-0.9611,0.1624
178205,0.0410,-0.9586,0.1812
178227,0.0422,-0.9563,0.1995
178250,0.0446,-0.9518,0.2328
178267,0.0457,-0.9498,0.2466
178289,0.0466,-0.9482,0.2579
178306,0.0474,-0.9471,0.2664
178352,0.0482,-0.9462,0.2715
178372,0.0481,-0.9468,0.2662
178397,0.0470,-0.9492,0.2461
178419,0.0461,-0.9510,0.2317
178441,0.0452,-0.9531,0.2150
178458,0.0439,-0.9556,0.1962
178489,0.0415,-0.9609,0.1549
178527,0.0378,-0.9692,0.0903
178563,0.0358,-0.9744,0.0505
178585,0.0349,-0.9768,0.0326
178610,0.0334,-0.9808,0.0017
178632,0.0330,-0.9824,-0.0109
178654,0.0325,-0.9839,-0.0216
178671,0.0322,-0.9850,-0.0304
178694,0.0319,-0.9866,-0.0424
178718,0.0317,-0.9871,-0.0458
178749,0.0317,-0.9874,-0.0483
178795,0.0320,-0.9871,-0.0439
178812,0.0321,-0.9867,-0.0410
178833,0.0322,-0.9863,-0.0376
178854,0.0323,-0.9860,-0.0337
178879,0.0327,-0.9850,-0.0251
178901,0.0330,-0.9845,-0.0208
178966,0.0337,-0.9821,-0.0010
178991,0.0343,-0.9806,0.0104
179013,0.0345,-0.9799,0.0166
179035,0.0349,-0.9790,0.0229
179052,0.0352,-0.9780,0.0297
179101,0.0364,-0.9751,0.0510
179118,0.0367,-0.9741,0.0583
179135,0.0371,-0.9730,0.0657
179158,0.0380,-0.9711,0.0798
179215,0.0389,-0.9683,0.0988
179238,0.0396,-0.9668,0.1089
179255,0.0398,-0.9662,0.1130
179277,0.0400,-0.9657,0.1167
179299,0.0402,-0.9652,0.1196
179316,0.0404,-0.9648,0.1219
179334,0.0405,-0.9646,0.1237
179352,0.0406,-0.9644,0.1255
179390,0.0406,-0.9644,0.1254
179421,0.0406,-0.9646,0.1237
179438,0.0406,-0.9648,0.1224
179460,0.0405,-0.9651,0.1211
179482,0.0405,-0.9653,0.1195
179499,0.0404,-0.9656,0.1179
179522,0.0403,-0.9661,0.1147
179546,0.0402,-0.9663,0.1132
179584,0.0399,-0.9668,0.1095
179606,0.0398,-0.9670,0.1085
179633,0.0398,-0.9672,0.1071
179655,0.0397,-0.9673,0.1067
179677,0.0397,-0.9673,0.1063
179694,0.0397,-0.9673,0.1062
179729,0.0397,-0.9673,0.1063
179754,0.0397,-0.9672,0.1068
179785,0.0398,-0.9670,0.1075
179807,0.0398,-0.9670,0.1079
179824,0.0398,-0.9669,0.1084
179845,0.0399,-0.9669,0.1089
179866,0.0399,-0.9667,0.1097
179891,0.0400,-0.9667,0.1101
179914,0.0400,-0.9666,0.1108
179936,0.0400,-0.9666,0.1112
179953,0.0402,-0.9666,0.1115
179971,0.0402,-0.9664,0.1117
179993,0.0402,-0.9664,0.1118
180032,0.0402,-0.9664,0.1121
180080,0.0403,-0.9664,0.1121
180105,0.0403,-0.9666,0.1119
180128,0.0403,-0.9666,0.1118
180150,0.0403,-0.9666,0.1117
180202,0.0403,-0.9667,0.1113
180224,0.0404,-0.9667,0.1112
180241,0.0404,-0.9667,0.1111
180264,0.0404,-0.9668,0.1108
180286,0.0404,-0.9668,0.1107
180303,0.0404,-0.9668,0.1107
180339,0.0405,-0.9668,0.1106
180362,0.0405,-0.9668,0.1105
180380,0.0405,-0.9668,0.1105
180402,0.0405,-0.9668,0.1105
180447,0.0404,-0.9667,0.1105
180469,0.0404,-0.9667,0.1105
180494,0.0404,-0.9667,0.1105
180516,0.0404,-0.9667,0.1105
180542,0.0403,-0.9667,0.1106
180562,0.0403,-0.9667,0.1106
180579,0.0403,-0.9667,0.1106
180601,0.0402,-0.9667,0.1106
180643,0.0402,-0.9667,0.1107
180677,0.0400,-0.9668,0.1108
180699,0.0400,-0.9668,0.1108
180716,0.0400,-0.9668,0.1110
180739,0.0400,-0.9668,0.1110
180761,0.0400,-0.9669,0.1110
180788,0.0400,-0.9669,0.1111
180810,0.0400,-0.9669,0.1111
180832,0.0400,-0.9669,0.1111
180870,0.0400,-0.9669,0.1111
180891,0.0400,-0.9669,0.1111
180908,0.0400,-0.9669,0.1111
180952,0.0400,-0.9668,0.1110
180969,0.0400,-0.9668,0.1110
180994,0.0400,-0.9668,0.1110
181016,0.0402,-0.9668,0.1110
181071,0.0402,-0.9668,0.1108
181095,0.0402,-0.9668,0.1108
181118,0.0402,-0.9668,0.1108
181140,0.0402,-0.9668,0.1108
181164,0.0402,-0.9668,0.1108
181187,0.0402,-0.9668,0.1108
181204,0.0402,-0.9668,0.1108
181253,0.0402,-0.9668,0.1107
181288,0.0402,-0.9668,0.1107
181305,0.0402,-0.9668,0.1107
181327,0.0402,-0.9668,0.1107
181350,0.0402,-0.9668,0.1107
181372,0.0402,-0.9668,0.1107
181393,0.0402,-0.9668,0.1107
181410,0.0402,-0.9668,0.1107
181441,0.0402,-0.9668,0.1107
181464,0.0402,-0.9668,0.1107
181481,0.0402,-0.9668,0.1107
181503,0.0402,-0.9668,0.1106
181525,0.0402,-0.9668,0.1106
181542,0.0402,-0.9668,0.1106
181588,0.0402,-0.9668,0.1107
181629,0.0402,-0.9668,0.1107
181651,0.0402,-0.9667,0.1107
181668,0.0402,-0.9667,0.1107
181690,0.0402,-0.9667,0.1107
181713,0.0402,-0.9667,0.1107
181730,0.0402,-0.9667,0.1107
181752,0.0402,-0.9667,0.1107
181774,0.0402,-0.9667,0.1107
181794,0.0403,-0.9667,0.1108
181811,0.0403,-0.9667,0.1108
181833,0.0403,-0.9667,0.1108
181878,0.0403,-0.9667,0.1107
181913,0.0403,-0.9666,0.1107
181930,0.0403,-0.9666,0.1107
181952,0.0403,-0.9666,0.1107
181975,0.0403,-0.9666,0.1107
181992,0.0403,-0.9666,0.1107
182017,0.0403,-0.9666,0.1107
182040,0.0403,-0.9666,0.1107
182087,0.0403,-0.9666,0.1107
182112,0.0402,-0.9666,0.1106
182134,0.0402,-0.9666,0.1106
182157,0.0402,-0.9664,0.1106
182174,0.0402,-0.9664,0.1106
182215,0.0402,-0.9664,0.1106
182268,0.0400,-0.9666,0.1106
182291,0.0400,-0.9666,0.1105
182308,0.0400,-0.9666,0.1105
182330,0.0400,-0.9666,0.1105
182352,0.0400,-0.9667,0.1106
182370,0.0400,-0.9667,0.1106
182389,0.0400,-0.9667,0.1106
182411,0.0400,-0.9667,0.1106
182451,0.0400,-0.9667,0.1106
182474,0.0400,-0.9667,0.1107
182491,0.0400,-0.9667,0.1107
182522,0.0400,-0.9667,0.1107
182555,0.0400,-0.9667,0.1108
182575,0.0400,-0.9666,0.1108
182597,0.0400,-0.9666,0.1110
182620,0.0400,-0.9664,0.1116
182653,0.0400,-0.9662,0.1129
182675,0.0400,-0.9659,0.1139
182692,0.0400,-0.9657,0.1151
182714,0.0400,-0.9655,0.1165
182737,0.0402,-0.9650,0.1198
182754,0.0403,-0.9646,0.1218
182776,0.0404,-0.9644,0.1244
182821,0.0410,-0.9630,0.1340
182868,0.0419,-0.9614,0.1476
182892,0.0422,-0.9607,0.1530
182914,0.0428,-0.9592,0.1649
182936,0.0432,-0.9583,0.1714
182953,0.0436,-0.9574,0.1783
182975,0.0438,-0.9564,0.1854
182998,0.0444,-0.9545,0.2000
183015,0.0447,-0.9534,0.2073
183033,0.0449,-0.9524,0.2145
183055,0.0452,-0.9515,0.2214
183117,0.0459,-0.9482,0.2454
183152,0.0461,-0.9471,0.2537
183169,0.0463,-0.9468,0.2565
183191,0.0464,-0.9465,0.2583
183214,0.0468,-0.9467,0.2583
183233,0.0469,-0.9470,0.2561
183255,0.0470,-0.9475,0.2522
183278,0.0470,-0.9495,0.2390
183321,0.0465,-0.9525,0.2188
183344,0.0454,-0.9565,0.1920
183361,0.0447,-0.9587,0.1768
183383,0.0438,-0.9611,0.1604
183404,0.0430,-0.9635,0.1434
183460,0.0389,-0.9730,0.0737
183500,0.0369,-0.9775,0.0417
183522,0.0360,-0.9795,0.0272
183547,0.0344,-0.9830,0.0017
183569,0.0339,-0.9845,-0.0090
183592,0.0333,-0.9867,-0.0264
183609,0.0332,-0.9874,-0.0327
183631,0.0332,-0.9879,-0.0377
183653,0.0334,-0.9882,-0.0413
183694,0.0343,-0.9877,-0.0432
183716,0.0348,-0.9871,-0.0411
183748,0.0358,-0.9854,-0.0330
183770,0.0363,-0.9844,-0.0269
183795,0.0374,-0.9817,-0.0111
183817,0.0380,-0.9802,-0.0013
183840,0.0392,-0.9769,0.0217
183859,0.0399,-0.9751,0.0348
183876,0.0405,-0.9731,0.0490
183897,0.0413,-0.9712,0.0640
183942,0.0435,-0.9647,0.1130
183963,0.0442,-0.9625,0.1301
183988,0.0458,-0.9581,0.1643
184010,0.0465,-0.9561,0.1810
184065,0.0483,-0.9502,0.2272
184086,0.0493,-0.9471,0.2527
184108,0.0496,-0.9458,0.2634
184130,0.0498,-0.9447,0.2727
184177,0.0498,-0.9426,0.2902
184202,0.0493,-0.9425,0.2930
184224,0.0491,-0.9427,0.2914
184246,0.0487,-0.9432,0.2881
184263,0.0482,-0.9440,0.2828
184292,0.0474,-0.9460,0.2667
184314,0.0469,-0.9475,0.2561
184357,0.0454,-0.9530,0.2147
184390,0.0443,-0.9574,0.1812
184408,0.0436,-0.9598,0.1633
184430,0.0430,-0.9623,0.1451
184453,0.0415,-0.9672,0.1085
184475,0.0406,-0.9696,0.0907
184492,0.0399,-0.9718,0.0734
184515,0.0382,-0.9761,0.0414
184546,0.0366,-0.9797,0.0138
184572,0.0360,-0.9813,0.0020
184592,0.0354,-0.9827,-0.0084
184615,0.0344,-0.9849,-0.0251
184637,0.0341,-0.9857,-0.0314
184662,0.0336,-0.9868,-0.0399
184693,0.0336,-0.9872,-0.0422
184710,0.0336,-0.9873,-0.0436
184741,0.0338,-0.9873,-0.0435
184764,0.0343,-0.9869,-0.0404
184781,0.0345,-0.9866,-0.0378
184803,0.0349,-0.9862,-0.0347
184825,0.0354,-0.9856,-0.0308
184842,0.0358,-0.9850,-0.0260
184865,0.0369,-0.9833,-0.0133
184886,0.0376,-0.9822,-0.0050
184930,0.0398,-0.9774,0.0297
184952,0.0406,-0.9755,0.0447
184969,0.0416,-0.9731,0.0615
185004,0.0438,-0.9681,0.1001
185027,0.0463,-0.9626,0.1433
185044,0.0475,-0.9598,0.1659
185066,0.0488,-0.9569,0.1885
185088,0.0500,-0.9540,0.2106
185109,0.0524,-0.9485,0.2522
185131,0.0533,-0.9459,0.2706
185153,0.0543,-0.9435,0.2872
