timestamp,acc_x,acc_y,acc_z
35806,0.3384,-0.5139,0.7656
36244,0.3367,-0.4957,0.7767
36275,0.3359,-0.4957,0.7781
36297,0.3352,-0.4957,0.7792
36314,0.3350,-0.4957,0.7797
36336,0.3347,-0.4957,0.7800
36358,0.3346,-0.4957,0.7803
36375,0.3345,-0.4957,0.7804
36398,0.3346,-0.4957,0.7804
36420,0.3347,-0.4957,0.7802
36437,0.3350,-0.4956,0.7798
36455,0.3351,-0.4956,0.7794
36477,0.3356,-0.4955,0.7786
36514,0.3359,-0.4954,0.7776
36535,0.3361,-0.4954,0.7771
36593,0.3361,-0.4954,0.7756
36609,0.3358,-0.4954,0.7754
36631,0.3356,-0.4954,0.7751
36656,0.3353,-0.4954,0.7749
36678,0.3345,-0.4955,0.7747
36699,0.3340,-0.4955,0.7745
36721,0.3334,-0.4956,0.7744
36738,0.3328,-0.4956,0.7744
36761,0.3313,-0.4956,0.7748
36782,0.3306,-0.4956,0.7751
36804,0.3298,-0.4956,0.7755
36827,0.3282,-0.4955,0.7766
36849,0.3275,-0.4954,0.7772
36892,0.3254,-0.4949,0.7792
36928,0.3243,-0.4944,0.7805
36944,0.3240,-0.4941,0.7811
36968,0.3236,-0.4939,0.7816
36983,0.3234,-0.4937,0.7821
37006,0.3231,-0.4932,0.7827
37026,0.3231,-0.4929,0.7830
37046,0.3231,-0.4927,0.7831
37079,0.3235,-0.4922,0.7831
37100,0.3236,-0.4919,0.7830
37125,0.3242,-0.4916,0.7827
37147,0.3245,-0.4913,0.7826
37170,0.3251,-0.4908,0.7823
37187,0.3254,-0.4906,0.7822
37227,0.3260,-0.4901,0.7823
37254,0.3265,-0.4895,0.7826
37271,0.3268,-0.4891,0.7828
37290,0.3270,-0.4888,0.7832
37339,0.3275,-0.4873,0.7845
37360,0.3276,-0.4868,0.7850
37377,0.3278,-0.4862,0.7856
37400,0.3280,-0.4850,0.7870
37422,0.3280,-0.4844,0.7876
37440,0.3280,-0.4836,0.7883
37461,0.3281,-0.4830,0.7891
37478,0.3281,-0.4824,0.7898
37516,0.3282,-0.4806,0.7915
37552,0.3284,-0.4796,0.7920
37568,0.3284,-0.4792,0.7920
37590,0.3284,-0.4789,0.7919
37612,0.3284,-0.4785,0.7917
37630,0.3282,-0.4779,0.7913
37652,0.3282,-0.4777,0.7910
37677,0.3281,-0.4773,0.7908
37707,0.3281,-0.4768,0.7906
37731,0.3280,-0.4764,0.7908
37753,0.3281,-0.4764,0.7909
37775,0.3281,-0.4764,0.7910
37794,0.3282,-0.4766,0.7910
37833,0.3289,-0.4774,0.7911
37866,0.3293,-0.4785,0.7910
37914,0.3303,-0.4813,0.7894
37935,0.3308,-0.4827,0.7885
37952,0.3313,-0.4841,0.7874
37978,0.3325,-0.4874,0.7843
37997,0.3333,-0.4894,0.7825
38014,0.3340,-0.4915,0.7805
38034,0.3348,-0.4935,0.7783
38055,0.3358,-0.4957,0.7760
38072,0.3367,-0.4980,0.7737
38090,0.3376,-0.5002,0.7712
38112,0.3396,-0.5046,0.7665
38149,0.3414,-0.5088,0.7622
38182,0.3433,-0.5123,0.7585
38198,0.3441,-0.5139,0.7570
38220,0.3448,-0.5153,0.7556
38243,0.3462,-0.5176,0.7537
38260,0.3467,-0.5184,0.7529
38282,0.3472,-0.5190,0.7523
38304,0.3475,-0.5194,0.7521
38349,0.3480,-0.5194,0.7523
38370,0.3480,-0.5189,0.7528
38388,0.3478,-0.5175,0.7543
38410,0.3475,-0.5165,0.7554
38432,0.3472,-0.5154,0.7566
38449,0.3467,-0.5142,0.7579
38492,0.3450,-0.5100,0.7621
38523,0.3439,-0.5071,0.7648
38544,0.3433,-0.5057,0.7660
38566,0.3425,-0.5044,0.7672
38583,0.3419,-0.5032,0.7682
38606,0.3407,-0.5010,0.7699
38628,0.3402,-0.5000,0.7706
38645,0.3397,-0.4991,0.7712
38668,0.3387,-0.4977,0.7723
38690,0.3384,-0.4972,0.7728
38710,0.3381,-0.4967,0.7733
38731,0.3379,-0.4963,0.7738
38768,0.3374,-0.4958,0.7748
38805,0.3374,-0.4960,0.7753
38824,0.3374,-0.4962,0.7754
38849,0.3376,-0.4968,0.7755
38871,0.3378,-0.4973,0.7754
38893,0.3380,-0.4978,0.7749
38913,0.3381,-0.4984,0.7744
38935,0.3386,-0.4999,0.7726
38957,0.3389,-0.5007,0.7715
38996,0.3395,-0.5027,0.7687
39016,0.3400,-0.5048,0.7657
39038,0.3402,-0.5057,0.7645
39058,0.3405,-0.5066,0.7633
39107,0.3411,-0.5085,0.7610
39131,0.3414,-0.5090,0.7607
39152,0.3417,-0.5090,0.7610
39176,0.3419,-0.5088,0.7616
39199,0.3425,-0.5079,0.7632
39221,0.3430,-0.5072,0.7643
39238,0.3435,-0.5063,0.7654
39261,0.3447,-0.5043,0.7677
39283,0.3455,-0.5031,0.7689
39300,0.3462,-0.5018,0.7700
39322,0.3470,-0.5005,0.7710
39344,0.3486,-0.4977,0.7726
39388,0.3505,-0.4949,0.7736
39424,0.3522,-0.4921,0.7743
39440,0.3529,-0.4907,0.7744
39463,0.3545,-0.4880,0.7745
39485,0.3551,-0.4868,0.7745
39502,0.3557,-0.4856,0.7745
39520,0.3563,-0.4845,0.7744
39542,0.3572,-0.4824,0.7744
39572,0.3574,-0.4814,0.7745
39594,0.3577,-0.4795,0.7750
39616,0.3575,-0.4786,0.7755
39633,0.3573,-0.4777,0.7760
39655,0.3571,-0.4768,0.7767
39678,0.3562,-0.4751,0.7783
39720,0.3551,-0.4734,0.7802
39736,0.3544,-0.4725,0.7810
39767,0.3529,-0.4708,0.7830
39789,0.3513,-0.4691,0.7852
39808,0.3505,-0.4683,0.7864
39830,0.3496,-0.4673,0.7876
39851,0.3488,-0.4663,0.7888
39874,0.3473,-0.4645,0.7914
39894,0.3466,-0.4636,0.7926
39915,0.3459,-0.4628,0.7937
39933,0.3453,-0.4620,0.7947
39978,0.3439,-0.4607,0.7976
40023,0.3423,-0.4615,0.8015
40045,0.3417,-0.4625,0.8032
40067,0.3408,-0.4636,0.8053
40090,0.3392,-0.4661,0.8096
40107,0.3385,-0.4670,0.8115
40129,0.3379,-0.4677,0.8130
40146,0.3375,-0.4679,0.8141
40177,0.3379,-0.4667,0.8146
40198,0.3386,-0.4650,0.8140
40221,0.3416,-0.4596,0.8115
40238,0.3436,-0.4558,0.8098
40260,0.3462,-0.4513,0.8077
40283,0.3521,-0.4409,0.8031
40328,0.3584,-0.4297,0.7982
40346,0.3615,-0.4243,0.7961
40381,0.3666,-0.4154,0.7913
40404,0.3695,-0.4102,0.7904
40423,0.3701,-0.4093,0.7897
40444,0.3701,-0.4095,0.7893
40467,0.3682,-0.4137,0.7893
40484,0.3663,-0.4172,0.7896
40506,0.3641,-0.4216,0.7899
40528,0.3617,-0.4266,0.7904
40546,0.3563,-0.4379,0.7914
40563,0.3535,-0.4436,0.7919
40585,0.3510,-0.4495,0.7922
40648,0.3428,-0.4701,0.7916
40671,0.3416,-0.4744,0.7908
40694,0.3402,-0.4813,0.7883
40716,0.3398,-0.4840,0.7867
40733,0.3398,-0.4863,0.7849
40758,0.3400,-0.4882,0.7831
40780,0.3407,-0.4910,0.7793
40809,0.3412,-0.4919,0.7775
40831,0.3420,-0.4935,0.7739
40852,0.3423,-0.4943,0.7723
40869,0.3425,-0.4949,0.7710
40892,0.3427,-0.4962,0.7686
40942,0.3424,-0.4988,0.7660
40962,0.3422,-0.4998,0.7653
40981,0.3418,-0.5007,0.7646
41000,0.3414,-0.5017,0.7640
41058,0.3394,-0.5057,0.7626
41095,0.3378,-0.5076,0.7625
41111,0.3370,-0.5082,0.7625
41133,0.3362,-0.5087,0.7625
41156,0.3347,-0.5089,0.7629
41193,0.3336,-0.5085,0.7639
41214,0.3330,-0.5083,0.7646
41250,0.3318,-0.5079,0.7668
41272,0.3306,-0.5079,0.7693
41294,0.3300,-0.5079,0.7704
41316,0.3295,-0.5078,0.7714
41340,0.3287,-0.5077,0.7732
41361,0.3284,-0.5076,0.7739
41378,0.3280,-0.5074,0.7744
41425,0.3273,-0.5071,0.7748
41446,0.3271,-0.5071,0.7744
41465,0.3269,-0.5072,0.7737
41488,0.3263,-0.5077,0.7720
41510,0.3259,-0.5082,0.7711
41556,0.3237,-0.5110,0.7686
41573,0.3228,-0.5123,0.7679
41622,0.3193,-0.5171,0.7660
41644,0.3182,-0.5187,0.7654
41667,0.3162,-0.5210,0.7645
41689,0.3154,-0.5217,0.7644
41713,0.3148,-0.5221,0.7644
41736,0.3142,-0.5216,0.7653
41758,0.3141,-0.5209,0.7660
41798,0.3149,-0.5164,0.7692
41825,0.3156,-0.5140,0.7705
41858,0.3171,-0.5089,0.7740
41881,0.3190,-0.5033,0.7780
41903,0.3198,-0.5007,0.7798
41927,0.3207,-0.4984,0.7816
41950,0.3221,-0.4949,0.7839
41974,0.3229,-0.4939,0.7844
42031,0.3248,-0.4949,0.7815
42054,0.3252,-0.4962,0.7798
42074,0.3256,-0.4979,0.7778
42097,0.3262,-0.5018,0.7732
42121,0.3264,-0.5039,0.7706
42165,0.3270,-0.5101,0.7632
42208,0.3268,-0.5140,0.7592
42230,0.3262,-0.5173,0.7563
42254,0.3257,-0.5188,0.7554
42277,0.3246,-0.5214,0.7545
42299,0.3239,-0.5225,0.7546
42323,0.3231,-0.5234,0.7554
42346,0.3213,-0.5249,0.7584
42366,0.3202,-0.5255,0.7607
42383,0.3191,-0.5259,0.7638
42401,0.3180,-0.5261,0.7671
42424,0.3159,-0.5259,0.7744
42468,0.3148,-0.5247,0.7814
42509,0.3160,-0.5204,0.7887
42530,0.3175,-0.5182,0.7900
42550,0.3196,-0.5159,0.7909
42573,0.3253,-0.5103,0.7909
42598,0.3290,-0.5073,0.7902
42627,0.3375,-0.5012,0.7875
42648,0.3423,-0.4983,0.7856
42673,0.3525,-0.4929,0.7806
42695,0.3579,-0.4902,0.7775
42717,0.3634,-0.4878,0.7737
42734,0.3690,-0.4852,0.7692
42767,0.3806,-0.4801,0.7585
42789,0.3918,-0.4757,0.7461
42820,0.4015,-0.4735,0.7328
42841,0.4055,-0.4735,0.7262
42864,0.4088,-0.4744,0.7197
42886,0.4133,-0.4774,0.7084
42908,0.4147,-0.4794,0.7037
42932,0.4154,-0.4813,0.7001
42955,0.4155,-0.4849,0.6964
42977,0.4149,-0.4862,0.6965
43003,0.4124,-0.4878,0.7006
43024,0.4103,-0.4884,0.7045
43073,0.4009,-0.4902,0.7217
43118,0.3873,-0.4944,0.7428
43139,0.3824,-0.4963,0.7496
43156,0.3776,-0.4984,0.7560
43178,0.3728,-0.5007,0.7617
43204,0.3643,-0.5056,0.7708
43233,0.3574,-0.5104,0.7762
43254,0.3549,-0.5126,0.7777
43278,0.3529,-0.5146,0.7783
43301,0.3508,-0.5181,0.7773
43323,0.3506,-0.5194,0.7760
43340,0.3510,-0.5205,0.7740
43373,0.3531,-0.5216,0.7692
43393,0.3549,-0.5217,0.7662
43414,0.3591,-0.5210,0.7603
43435,0.3617,-0.5203,0.7571
43457,0.3644,-0.5194,0.7540
43499,0.3726,-0.5159,0.7454
43520,0.3752,-0.5145,0.7427
43537,0.3777,-0.5132,0.7402
43560,0.3822,-0.5104,0.7365
43582,0.3840,-0.5090,0.7351
43627,0.3881,-0.5051,0.7333
43643,0.3888,-0.5040,0.7333
43711,0.3892,-0.5000,0.7358
43728,0.3887,-0.4991,0.7368
43749,0.3881,-0.4983,0.7379
43771,0.3873,-0.4977,0.7390
43788,0.3865,-0.4971,0.7404
43811,0.3845,-0.4960,0.7437
43838,0.3835,-0.4956,0.7456
43855,0.3826,-0.4952,0.7478
43876,0.3805,-0.4949,0.7524
43897,0.3795,-0.4949,0.7549
43934,0.3778,-0.4951,0.7595
43981,0.3756,-0.4963,0.7644
43997,0.3750,-0.4971,0.7651
44018,0.3746,-0.4979,0.7653
44039,0.3741,-0.5006,0.7638
44099,0.3746,-0.5066,0.7568
44124,0.3757,-0.5117,0.7496
44145,0.3767,-0.5145,0.7455
44167,0.3777,-0.5175,0.7411
44184,0.3788,-0.5204,0.7367
44207,0.3815,-0.5261,0.7280
44229,0.3828,-0.5289,0.7239
44246,0.3843,-0.5315,0.7200
44300,0.3884,-0.5377,0.7106
44334,0.3907,-0.5403,0.7064
44356,0.3925,-0.5413,0.7042
44374,0.3932,-0.5411,0.7037
44394,0.3936,-0.5406,0.7039
44417,0.3940,-0.5383,0.7054
44440,0.3939,-0.5366,0.7070
44458,0.3937,-0.5347,0.7090
44479,0.3933,-0.5323,0.7114
44541,0.3901,-0.5209,0.7241
44562,0.3892,-0.5178,0.7277
44598,0.3870,-0.5117,0.7389
44620,0.3848,-0.5063,0.7424
44638,0.3837,-0.5039,0.7460
44662,0.3826,-0.5018,0.7493
44684,0.3807,-0.4984,0.7554
44726,0.3792,-0.4961,0.7604
44748,0.3779,-0.4949,0.7639
44768,0.3774,-0.4946,0.7649
44789,0.3771,-0.4948,0.7655
44811,0.3768,-0.4951,0.7655
44830,0.3766,-0.4966,0.7639
44851,0.3767,-0.4977,0.7625
44869,0.3770,-0.4991,0.7605
44905,0.3779,-0.5026,0.7557
44939,0.3796,-0.5070,0.7500
44961,0.3820,-0.5122,0.7439
44985,0.3834,-0.5154,0.7407
45004,0.3850,-0.5186,0.7377
45025,0.3867,-0.5220,0.7347
45048,0.3900,-0.5286,0.7296
45072,0.3915,-0.5314,0.7274
45094,0.3939,-0.5354,0.7240
45145,0.3965,-0.5372,0.7206
45168,0.3973,-0.5366,0.7198
45202,0.3990,-0.5341,0.7188
45224,0.4011,-0.5303,0.7179
45241,0.4025,-0.5281,0.7174
45263,0.4037,-0.5259,0.7169
45280,0.4049,-0.5238,0.7164
45322,0.4071,-0.5203,0.7150
45344,0.4088,-0.5181,0.7131
45362,0.4094,-0.5176,0.7120
45383,0.4102,-0.5176,0.7109
45404,0.4108,-0.5179,0.7096
45427,0.4126,-0.5197,0.7067
45449,0.4138,-0.5208,0.7051
45475,0.4171,-0.5229,0.7017
45511,0.4219,-0.5245,0.6984
45557,0.4314,-0.5253,0.6940
45580,0.4351,-0.5249,0.6929
45603,0.4426,-0.5234,0.6909
45625,0.4465,-0.5223,0.6901
45642,0.4503,-0.5210,0.6893
45664,0.4541,-0.5194,0.6886
45682,0.4576,-0.5176,0.6881
45731,0.4677,-0.5115,0.6871
45753,0.4734,-0.5068,0.6874
45771,0.4758,-0.5043,0.6879
45810,0.4799,-0.4991,0.6898
45837,0.4827,-0.4937,0.6927
45856,0.4835,-0.4910,0.6946
45878,0.4841,-0.4883,0.6967
45927,0.4846,-0.4812,0.7029
45949,0.4841,-0.4774,0.7068
45966,0.4838,-0.4757,0.7086
45987,0.4834,-0.4742,0.7106
46006,0.4830,-0.4729,0.7124
46029,0.4827,-0.4718,0.7142
46049,0.4822,-0.4703,0.7175
46071,0.4819,-0.4700,0.7188
46114,0.4816,-0.4716,0.7190
46132,0.4817,-0.4731,0.7177
46201,0.4840,-0.4855,0.7036
46218,0.4851,-0.4901,0.6979
46239,0.4866,-0.4955,0.6913
46262,0.4902,-0.5079,0.6757
46280,0.4924,-0.5149,0.6669
46301,0.4949,-0.5222,0.6577
46326,0.4974,-0.5298,0.6481
46368,0.5059,-0.5536,0.6184
46421,0.5146,-0.5765,0.5901
46442,0.5175,-0.5836,0.5813
46465,0.5227,-0.5966,0.5653
46487,0.5251,-0.6023,0.5581
46511,0.5294,-0.6119,0.5461
46529,0.5312,-0.6158,0.5414
46550,0.5328,-0.6191,0.5374
46597,0.5360,-0.6251,0.5304
46618,0.5366,-0.6259,0.5297
46635,0.5369,-0.6260,0.5297
46658,0.5366,-0.6248,0.5316
46680,0.5361,-0.6235,0.5336
46722,0.5344,-0.6198,0.5392
46738,0.5332,-0.6176,0.5428
46781,0.5284,-0.6093,0.5558
46802,0.5265,-0.6062,0.5607
46820,0.5245,-0.6030,0.5657
46842,0.5200,-0.5963,0.5762
46864,0.5177,-0.5930,0.5815
46885,0.5153,-0.5896,0.5868
46907,0.5103,-0.5829,0.5972
46932,0.5077,-0.5796,0.6022
46986,0.5004,-0.5699,0.6161
47032,0.4935,-0.5612,0.6278
47054,0.4893,-0.5558,0.6348
47076,0.4873,-0.5535,0.6381
47098,0.4854,-0.5511,0.6412
47115,0.4836,-0.5491,0.6442
47134,0.4821,-0.5471,0.6471
47156,0.4790,-0.5437,0.6528
47207,0.4756,-0.5403,0.6597
47228,0.4746,-0.5397,0.6614
47245,0.4739,-0.5393,0.6627
47268,0.4727,-0.5392,0.6639
47290,0.4723,-0.5396,0.6639
47334,0.4722,-0.5413,0.6619
47351,0.4724,-0.5421,0.6606
47378,0.4728,-0.5431,0.6592
47400,0.4739,-0.5450,0.6559
47425,0.4746,-0.5460,0.6541
47446,0.4753,-0.5469,0.6522
47467,0.4772,-0.5486,0.6487
47491,0.4780,-0.5493,0.6471
47514,0.4800,-0.5507,0.6442
47536,0.4811,-0.5513,0.6428
47584,0.4847,-0.5544,0.6393
47605,0.4865,-0.5564,0.6379
47642,0.4912,-0.5621,0.6345
47658,0.4944,-0.5663,0.6320
47681,0.5027,-0.5770,0.6251
47703,0.5078,-0.5836,0.6207
47720,0.5134,-0.5909,0.6157
47742,0.5192,-0.5988,0.6102
47759,0.5247,-0.6069,0.6044
47794,0.5333,-0.6534,0.5883
47816,0.5358,-0.6326,0.5845
47840,0.5337,-0.6349,0.5822
47868,0.5219,-0.6317,0.5839
47890,0.5118,-0.6261,0.5889
47917,0.4843,-0.6078,0.6086
47950,0.4480,-0.5818,0.6439
47985,0.4061,-0.5513,0.6948
48006,0.3843,-0.5353,0.7256
48026,0.3414,-0.5040,0.7939
48042,0.3213,-0.4896,0.8296
48062,0.3027,-0.4767,0.8646
48083,0.2859,-0.4656,0.8978
48100,0.2712,-0.4567,0.9277
48122,0.2588,-0.4502,0.9534
48145,0.2412,-0.4460,0.9872
48199,0.2323,-0.4635,0.9833
48224,0.2362,-0.4913,0.9410
48257,0.2455,-0.5306,0.8691
48278,0.2515,-0.5538,0.8236
48296,0.2578,-0.5790,0.7727
48317,0.2643,-0.6055,0.7177
48340,0.2766,-0.6610,0.5994
48357,0.2820,-0.6891,0.5388
48374,0.2867,-0.7168,0.4788
48396,0.2909,-0.7435,0.4209
48431,0.2969,-0.7926,0.3157
48453,0.2999,-0.8326,0.2312
48478,0.3004,-0.8485,0.1987
48498,0.3000,-0.8612,0.1733
48521,0.2970,-0.8761,0.1450
48569,0.2874,-0.8717,0.1591
48585,0.2828,-0.8634,0.1780
48631,0.2723,-0.8383,0.2346
48653,0.2603,-0.8038,0.3127
48671,0.2538,-0.7842,0.3582
48692,0.2472,-0.7632,0.4067
48714,0.2405,-0.7416,0.4576
48732,0.2340,-0.7194,0.5100
48754,0.2214,-0.6752,0.6155
48779,0.2156,-0.6538,0.6667
48813,0.2056,-0.6149,0.7622
48835,0.1980,-0.5828,0.8433
48869,0.1935,-0.5596,0.9049
48885,0.1924,-0.5516,0.9276
48907,0.1921,-0.5461,0.9446
48929,0.1926,-0.5431,0.9557
48948,0.1957,-0.5441,0.9615
48969,0.1981,-0.5479,0.9567
48991,0.2009,-0.5535,0.9473
49020,0.2076,-0.5691,0.9169
49046,0.2150,-0.5890,0.8751
49066,0.2186,-0.5999,0.8516
49087,0.2223,-0.6110,0.8271
49106,0.2256,-0.6219,0.8024
49130,0.2317,-0.6432,0.7540
49172,0.2363,-0.6619,0.7106
49226,0.2410,-0.6835,0.6600
49250,0.2426,-0.6929,0.6381
49272,0.2429,-0.6962,0.6307
49295,0.2429,-0.6998,0.6227
49318,0.2428,-0.7004,0.6216
49337,0.2424,-0.7004,0.6223
49356,0.2421,-0.6998,0.6244
49374,0.2416,-0.6986,0.6277
49391,0.2411,-0.6970,0.6318
49413,0.2399,-0.6930,0.6420
49455,0.2386,-0.6881,0.6531
49498,0.2369,-0.6802,0.6693
49514,0.2367,-0.6776,0.6743
49536,0.2365,-0.6753,0.6791
49559,0.2368,-0.6711,0.6873
49576,0.2373,-0.6696,0.6907
49594,0.2379,-0.6683,0.6935
49615,0.2388,-0.6675,0.6956
49662,0.2424,-0.6672,0.6974
49683,0.2439,-0.6678,0.6964
49700,0.2454,-0.6688,0.6947
49723,0.2482,-0.6718,0.6896
49745,0.2495,-0.6733,0.6865
49782,0.2515,-0.6770,0.6805
49799,0.2523,-0.6787,0.6782
49840,0.2534,-0.6823,0.6791
49861,0.2534,-0.6825,0.6833
49881,0.2532,-0.6819,0.6902
49904,0.2521,-0.6776,0.7123
49926,0.2512,-0.6736,0.7275
49950,0.2502,-0.6682,0.7451
49973,0.2480,-0.6533,0.7850
49993,0.2471,-0.6443,0.8055
50034,0.2461,-0.6147,0.8561
50055,0.2468,-0.6058,0.8654
50105,0.2538,-0.5890,0.8563
50124,0.2578,-0.5881,0.8392
50146,0.2626,-0.5900,0.8149
50169,0.2744,-0.6023,0.7452
50186,0.2812,-0.6128,0.7013
50205,0.2886,-0.6259,0.6525
50226,0.2961,-0.6414,0.5996
50278,0.3197,-0.6985,0.4302
50300,0.3347,-0.7410,0.3206
50317,0.3418,-0.7620,0.2704
50339,0.3484,-0.7821,0.2246
50361,0.3545,-0.8009,0.1843
50400,0.3690,-0.8455,0.1022
50416,0.3723,-0.8551,0.0892
50450,0.3759,-0.8656,0.0864
50471,0.3760,-0.8661,0.0968
50497,0.3728,-0.8573,0.1401
50518,0.3694,-0.8481,0.1725
50540,0.3647,-0.8362,0.2113
50557,0.3590,-0.8217,0.2559
50577,0.3521,-0.8048,0.3054
50599,0.3347,-0.7661,0.4153
50617,0.3246,-0.7450,0.4736
50655,0.3020,-0.7019,0.5913
50703,0.2648,-0.6416,0.7534
50719,0.2523,-0.6241,0.7996
50741,0.2402,-0.6088,0.8403
50764,0.2181,-0.5846,0.9039
50781,0.2085,-0.5762,0.9259
50803,0.2000,-0.5703,0.9412
50821,0.1925,-0.5669,0.9498
50855,0.1816,-0.5674,0.9484
50877,0.1759,-0.5762,0.9252
50929,0.1754,-0.6008,0.8611
50950,0.1770,-0.6108,0.8351
50968,0.1793,-0.6215,0.8081
51011,0.1885,-0.6534,0.7283
51056,0.1985,-0.6813,0.6621
51076,0.2015,-0.6890,0.6450
51101,0.2042,-0.6956,0.6306
51122,0.2085,-0.7057,0.6104
51142,0.2100,-0.7092,0.6045
51165,0.2112,-0.7118,0.6011
51188,0.2122,-0.7139,0.6014
51210,0.2120,-0.7137,0.6049
51227,0.2115,-0.7128,0.6104
51245,0.2108,-0.7109,0.6177
51267,0.2097,-0.7084,0.6272
51308,0.2051,-0.6956,0.6691
51364,0.1995,-0.6737,0.7329
51381,0.1979,-0.6643,0.7582
51403,0.1959,-0.6429,0.8114
51425,0.1960,-0.6316,0.8375
51464,0.1990,-0.6090,0.8834
51486,0.2063,-0.5900,0.9137
51504,0.2115,-0.5828,0.9204
51525,0.2179,-0.5776,0.9204
51547,0.2252,-0.5751,0.9132
51565,0.2333,-0.5750,0.8983
51618,0.2703,-0.6030,0.7651
51634,0.2795,-0.6167,0.7159
51656,0.2887,-0.6326,0.6622
51678,0.2972,-0.6506,0.6052
51721,0.3191,-0.7126,0.4269
51742,0.3247,-0.7347,0.3693
51759,0.3293,-0.7566,0.3148
51782,0.3353,-0.7982,0.2192
51804,0.3368,-0.8169,0.1801
51821,0.3372,-0.8337,0.1473
51847,0.3351,-0.8602,0.1035
51868,0.3329,-0.8698,0.0927
51909,0.3263,-0.8802,0.0931
51943,0.3175,-0.8799,0.1211
51966,0.3068,-0.8685,0.1736
51985,0.3008,-0.8590,0.2076
52004,0.2943,-0.8470,0.2462
52020,0.2874,-0.8328,0.2886
52040,0.2800,-0.8163,0.3341
52056,0.2721,-0.7980,0.3822
52101,0.2462,-0.7355,0.5345
52122,0.2371,-0.7134,0.5856
52150,0.2186,-0.6696,0.6840
52169,0.2094,-0.6487,0.7300
52192,0.1917,-0.6107,0.8127
52209,0.1833,-0.5941,0.8485
52243,0.1682,-0.5669,0.9066
52260,0.1616,-0.5566,0.9285
52314,0.1460,-0.5400,0.9635
52335,0.1423,-0.5391,0.9652
52352,0.1393,-0.5403,0.9623
52375,0.1353,-0.5485,0.9440
52420,0.1337,-0.5631,0.9119
52441,0.1340,-0.5820,0.8706
52459,0.1348,-0.5925,0.8480
52480,0.1357,-0.6033,0.8248
52510,0.1383,-0.6245,0.7789
52553,0.1412,-0.6442,0.7371
52569,0.1428,-0.6530,0.7186
52592,0.1459,-0.6678,0.6879
52614,0.1473,-0.6738,0.6760
52631,0.1487,-0.6788,0.6665
52654,0.1511,-0.6857,0.6549
52677,0.1521,-0.6875,0.6528
52719,0.1534,-0.6875,0.6874
52741,0.1537,-0.6824,0.6700
52759,0.1533,-0.6777,0.6812
52780,0.1526,-0.6718,0.6949
52803,0.1508,-0.6560,0.7308
52820,0.1497,-0.6464,0.7522
52853,0.1478,-0.6246,0.7992
52870,0.1473,-0.6132,0.8235
52900,0.1476,-0.6016,0.8470
52922,0.1501,-0.5802,0.8883
52940,0.1527,-0.5712,0.9041
52961,0.1562,-0.5640,0.9154
52986,0.1661,-0.5559,0.9219
53007,0.1724,-0.5557,0.9160
53028,0.1794,-0.5582,0.9037
53047,0.1873,-0.5637,0.8848
53071,0.2043,-0.5833,0.8276
53093,0.2133,-0.5969,0.7903
53113,0.2222,-0.6132,0.7477
53150,0.2466,-0.6729,0.5962
53189,0.2593,-0.7180,0.4852
53208,0.2642,-0.7410,0.4301
53231,0.2708,-0.7850,0.3257
53253,0.2726,-0.8057,0.2783
53274,0.2736,-0.8247,0.2355
53296,0.2729,-0.8572,0.1656
53316,0.2716,-0.8702,0.1396
53362,0.2654,-0.8939,0.1005
53387,0.2628,-0.8965,0.1001
53408,0.2601,-0.8965,0.1061
53431,0.2550,-0.8888,0.1351
53448,0.2526,-0.8815,0.1578
53488,0.2479,-0.8600,0.2175
53504,0.2458,-0.8462,0.2539
53534,0.2417,-0.8135,0.3369
53555,0.2395,-0.7950,0.3826
53581,0.2346,-0.7554,0.4792
53602,0.2321,-0.7349,0.5289
53624,0.2291,-0.7142,0.5785
53642,0.2229,-0.6746,0.6748
53664,0.2195,-0.6559,0.7200
53684,0.2158,-0.6385,0.7625
53702,0.2120,-0.6226,0.8014
53744,0.2002,-0.5854,0.8928
53802,0.1888,-0.5670,0.9397
53818,0.1853,-0.5652,0.9451
53841,0.1792,-0.5676,0.9412
53863,0.1765,-0.5715,0.9326
53880,0.1743,-0.5770,0.9203
53938,0.1696,-0.6005,0.8669
53970,0.1678,-0.6190,0.8248
53991,0.1669,-0.6370,0.7844
54014,0.1666,-0.6449,0.7666
54033,0.1663,-0.6519,0.7513
54052,0.1658,-0.6576,0.7390
54099,0.1636,-0.6653,0.7225
54116,0.1624,-0.6646,0.7241
54161,0.1583,-0.6528,0.7473
54181,0.1571,-0.6465,0.7596
54204,0.1554,-0.6313,0.7871
54225,0.1553,-0.6233,0.8007
54247,0.1556,-0.6156,0.8131
54267,0.1566,-0.6084,0.8235
54289,0.1609,-0.5970,0.8351
54313,0.1642,-0.5938,0.8350
54367,0.1842,-0.6019,0.7841
54403,0.1974,-0.6213,0.7264
54419,0.2043,-0.6348,0.6902
54441,0.2114,-0.6505,0.6497
54463,0.2185,-0.6683,0.6056
54480,0.2253,-0.6877,0.5585
54503,0.2382,-0.7302,0.4595
54521,0.2439,-0.7524,0.4093
54557,0.2534,-0.7963,0.3127
54578,0.2572,-0.8171,0.2682
54604,0.2628,-0.8547,0.1901
54625,0.2644,-0.8708,0.1578
54648,0.2656,-0.8962,0.1097
54666,0.2653,-0.9050,0.0945
54708,0.2625,-0.9139,0.0823
54725,0.2601,-0.9141,0.0856
54766,0.2506,-0.8967,0.1318
54787,0.2467,-0.8857,0.1587
54804,0.2428,-0.8727,0.1908
54826,0.2386,-0.8577,0.2275
54849,0.2300,-0.8234,0.3131
54867,0.2256,-0.8047,0.3607
54888,0.2211,-0.7853,0.4104
54911,0.2115,-0.7457,0.5132
54931,0.2067,-0.7261,0.5646
54952,0.2017,-0.7069,0.6150
54974,0.1968,-0.6886,0.6637
55031,0.1797,-0.6300,0.8280
55053,0.1765,-0.6200,0.8588
55075,0.1722,-0.6066,0.9054
55097,0.1710,-0.6029,0.9208
55115,0.1704,-0.6013,0.9308
55132,0.1704,-0.6016,0.9354
55153,0.1709,-0.6035,0.9351
55197,0.1746,-0.6174,0.9067
55242,0.1798,-0.6390,0.8485
55262,0.1815,-0.6470,0.8253
55311,0.1857,-0.6700,0.7539
55334,0.1865,-0.6770,0.7313
55356,0.1875,-0.6891,0.6914
55416,0.1870,-0.7023,0.6479
55438,0.1855,-0.7075,0.6311
55455,0.1846,-0.7092,0.6261
55477,0.1833,-0.7102,0.6233
55499,0.1821,-0.7107,0.6226
55516,0.1808,-0.7106,0.6239
55534,0.1793,-0.7100,0.6271
55556,0.1760,-0.7069,0.6399
55593,0.1726,-0.7007,0.6628
55629,0.1692,-0.6903,0.6974
55645,0.1676,-0.6833,0.7190
55668,0.1655,-0.6663,0.7684
55690,0.1655,-0.6564,0.7946
55708,0.1663,-0.6459,0.8203
55727,0.1681,-0.6353,0.8442
55744,0.1710,-0.6250,0.8651
55794,0.1879,-0.6007,0.8960
55815,0.1960,-0.5966,0.8925
55833,0.2158,-0.5963,0.8607
55855,0.2269,-0.6006,0.8324
55877,0.2384,-0.6080,0.7964
55894,0.2502,-0.6185,0.7531
55927,0.2734,-0.6475,0.6483
55956,0.2943,-0.6852,0.5266
55990,0.3114,-0.7286,0.3978
56009,0.3182,-0.7513,0.3341
56033,0.3282,-0.7969,0.2140
56052,0.3315,-0.8187,0.1600
56072,0.3335,-0.8394,0.1113
56094,0.3344,-0.8584,0.0686
56115,0.3325,-0.8905,0.0044
56135,0.3300,-0.9028,-0.0164
56174,0.3214,-0.9185,-0.0332
56196,0.3088,-0.9211,-0.0170
56232,0.2925,-0.9109,0.0304
56249,0.2832,-0.9012,0.0647
56270,0.2732,-0.8890,0.1053
56292,0.2626,-0.8745,0.1514
56316,0.2401,-0.8401,0.2565
56335,0.2285,-0.8209,0.3137
56353,0.2168,-0.8009,0.3728
56418,0.1716,-0.7217,0.6078
56437,0.1616,-0.7040,0.6614
56459,0.1440,-0.6732,0.7567
56481,0.1367,-0.6606,0.7970
56499,0.1305,-0.6500,0.8318
56534,0.1215,-0.6353,0.8834
56559,0.1167,-0.6285,0.9103
56588,0.1160,-0.6282,0.9147
56610,0.1169,-0.6322,0.9069
56634,0.1184,-0.6364,0.8956
56657,0.1230,-0.6476,0.8616
56679,0.1257,-0.6544,0.8400
56696,0.1285,-0.6615,0.8164
56718,0.1313,-0.6688,0.7914
56738,0.1342,-0.6760,0.7656
56797,0.1420,-0.7018,0.6680
56836,0.1437,-0.7111,0.6289
56852,0.1439,-0.7146,0.6130
56875,0.1434,-0.7192,0.5895
56897,0.1427,-0.7205,0.5820
56914,0.1418,-0.7211,0.5773
56937,0.1394,-0.7203,0.5759
56959,0.1381,-0.7192,0.5792
56990,0.1350,-0.7158,0.5931
57010,0.1334,-0.7137,0.6039
57032,0.1318,-0.7114,0.6169
57053,0.1290,-0.7054,0.6508
57074,0.1277,-0.7017,0.6713
57098,0.1263,-0.6969,0.6941
57143,0.1229,-0.6765,0.7712
57160,0.1221,-0.6678,0.7976
57177,0.1217,-0.6584,0.8228
57198,0.1218,-0.6487,0.8457
57242,0.1274,-0.6222,0.8906
57263,0.1311,-0.6157,0.8940
57289,0.1415,-0.6089,0.8793
57310,0.1478,-0.6091,0.8605
57333,0.1627,-0.6176,0.8003
57350,0.1709,-0.6259,0.7600
57372,0.1794,-0.6368,0.7139
57390,0.1884,-0.6504,0.6628
57451,0.2244,-0.7263,0.4330
57484,0.2410,-0.7725,0.3185
57503,0.2484,-0.7960,0.2650
57525,0.2552,-0.8191,0.2152
57548,0.2664,-0.8623,0.1295
57565,0.2705,-0.8816,0.0947
57590,0.2737,-0.8988,0.0656
57611,0.2759,-0.9137,0.0424
57641,0.2775,-0.9359,0.0142
57663,0.2754,-0.9476,0.0101
57687,0.2731,-0.9495,0.0168
57709,0.2701,-0.9485,0.0289
57732,0.2626,-0.9387,0.0685
57750,0.2579,-0.9301,0.0950
57799,0.2416,-0.8923,0.1968
57849,0.2220,-0.8418,0.3235
57870,0.2151,-0.8234,0.3694
57887,0.2079,-0.8044,0.4163
57910,0.1927,-0.7668,0.5115
57932,0.1849,-0.7484,0.5586
57949,0.1771,-0.7307,0.6046
57969,0.1693,-0.7139,0.6489
57989,0.1616,-0.6982,0.6909
58012,0.1470,-0.6711,0.7661
58033,0.1404,-0.6600,0.7983
58055,0.1343,-0.6508,0.8264
58085,0.1240,-0.6375,0.8694
58118,0.1166,-0.6311,0.8938
58134,0.1139,-0.6302,0.8989
58157,0.1107,-0.6326,0.8961
58180,0.1100,-0.6354,0.8887
58215,0.1104,-0.6436,0.8639
58231,0.1111,-0.6487,0.8473
58275,0.1151,-0.6654,0.7876
58296,0.1168,-0.6710,0.7660
58322,0.1200,-0.6818,0.7231
58343,0.1215,-0.6865,0.7029
58365,0.1228,-0.6909,0.6837
58382,0.1239,-0.6948,0.6661
58426,0.1260,-0.7035,0.6243
58483,0.1260,-0.7074,0.6008
58508,0.1252,-0.7079,0.5950
58529,0.1246,-0.7075,0.5946
58552,0.1232,-0.7061,0.5979
58572,0.1224,-0.7050,0.6012
58593,0.1216,-0.7037,0.6052
58615,0.1208,-0.7024,0.6099
58632,0.1201,-0.7010,0.6149
58650,0.1190,-0.6985,0.6252
58672,0.1185,-0.6974,0.6302
58717,0.1180,-0.6947,0.6437
58750,0.1183,-0.6936,0.6505
58766,0.1185,-0.6934,0.6532
58786,0.1189,-0.6932,0.6555
58807,0.1193,-0.6932,0.6573
58824,0.1198,-0.6934,0.6587
58850,0.1207,-0.6937,0.6603
58871,0.1212,-0.6941,0.6605
58920,0.1227,-0.6951,0.6597
58941,0.1232,-0.6954,0.6588
58958,0.1235,-0.6958,0.6580
58982,0.1244,-0.6964,0.6559
59001,0.1248,-0.6967,0.6548
59023,0.1251,-0.6969,0.6537
59060,0.1259,-0.6971,0.6516
59099,0.1271,-0.6973,0.6492
59120,0.1274,-0.6971,0.6486
59141,0.1278,-0.6969,0.6481
59164,0.1283,-0.6962,0.6473
59186,0.1283,-0.6956,0.6471
59203,0.1283,-0.6949,0.6470
59225,0.1282,-0.6943,0.6469
59248,0.1276,-0.6927,0.6467
59266,0.1272,-0.6919,0.6467
59287,0.1266,-0.6910,0.6469
59308,0.1261,-0.6903,0.6470
59351,0.1244,-0.6884,0.6479
59384,0.1234,-0.6874,0.6489
59400,0.1230,-0.6870,0.6495
59422,0.1227,-0.6869,0.6501
59445,0.1223,-0.6866,0.6516
59462,0.1223,-0.6866,0.6525
59481,0.1223,-0.6868,0.6533
59502,0.1224,-0.6869,0.6541
59557,0.1237,-0.6886,0.6565
59581,0.1240,-0.6891,0.6567
59602,0.1245,-0.6898,0.6567
59625,0.1254,-0.6912,0.6560
59645,0.1257,-0.6918,0.6553
59694,0.1267,-0.6938,0.6520
59732,0.1273,-0.6951,0.6492
59754,0.1278,-0.6960,0.6465
59779,0.1281,-0.6965,0.6451
59799,0.1283,-0.6968,0.6440
59820,0.1287,-0.6973,0.6421
59845,0.1288,-0.6974,0.6414
59866,0.1289,-0.6975,0.6409
59889,0.1290,-0.6974,0.6404
59941,0.1290,-0.6971,0.6409
59995,0.1288,-0.6967,0.6420
60018,0.1287,-0.6964,0.6427
60038,0.1287,-0.6963,0.6432
60058,0.1287,-0.6962,0.6437
60079,0.1287,-0.6959,0.6440
60102,0.1287,-0.6956,0.6450
60119,0.1287,-0.6953,0.6456
60152,0.1288,-0.6947,0.6467
60173,0.1289,-0.6945,0.6472
60197,0.1290,-0.6941,0.6477
60220,0.1294,-0.6932,0.6487
60242,0.1295,-0.6929,0.6490
60259,0.1298,-0.6924,0.6493
60301,0.1306,-0.6914,0.6495
60340,0.1312,-0.6910,0.6494
60361,0.1316,-0.6909,0.6492
60378,0.1318,-0.6909,0.6490
60401,0.1322,-0.6909,0.6487
60423,0.1322,-0.6909,0.6487
60440,0.1322,-0.6910,0.6490
60463,0.1320,-0.6912,0.6509
60485,0.1315,-0.6910,0.6531
60503,0.1310,-0.6907,0.6565
60521,0.1301,-0.6899,0.6616
60542,0.1290,-0.6885,0.6691
60603,0.1241,-0.6733,0.7292
60636,0.1233,-0.6592,0.7770
60652,0.1241,-0.6510,0.8032
60674,0.1261,-0.6425,0.8293
60697,0.1343,-0.6259,0.8757
60717,0.1406,-0.6185,0.8931
60734,0.1487,-0.6125,0.9044
60756,0.1583,-0.6082,0.9086
60793,0.1956,-0.6083,0.8705
60814,0.2101,-0.6136,0.8398
60838,0.2252,-0.6218,0.8005
60861,0.2561,-0.6469,0.6990
60883,0.2712,-0.6632,0.6389
60900,0.2856,-0.6819,0.5743
60945,0.3224,-0.7467,0.3691
60995,0.3453,-0.8149,0.1759
61014,0.3495,-0.8363,0.1199
61036,0.3518,-0.8563,0.0693
61057,0.3518,-0.8907,-0.0125
61078,0.3496,-0.9048,-0.0427
61095,0.3461,-0.9164,-0.0657
61117,0.3416,-0.9254,-0.0813
61140,0.3296,-0.9355,-0.0903
61179,0.3148,-0.9347,-0.0709
61200,0.3068,-0.9303,-0.0513
61250,0.2808,-0.9012,0.0430
61272,0.2626,-0.8710,0.1306
61289,0.2535,-0.8534,0.1802
61309,0.2446,-0.8347,0.2330
61330,0.2360,-0.8154,0.2883
61356,0.2195,-0.7761,0.4038
61373,0.2118,-0.7570,0.4626
61395,0.2046,-0.7386,0.5210
61451,0.1808,-0.6779,0.7367
61472,0.1761,-0.6669,0.7826
61490,0.1720,-0.6577,0.8237
61511,0.1685,-0.6504,0.8599
61556,0.1604,-0.6392,0.9331
61576,0.1586,-0.6385,0.9451
61597,0.1570,-0.6394,0.9509
61620,0.1547,-0.6445,0.9449
61667,0.1526,-0.6580,0.8984
61716,0.1509,-0.6742,0.8224
61737,0.1504,-0.6794,0.7939
61757,0.1497,-0.6844,0.7651
61782,0.1483,-0.6934,0.7092
61803,0.1475,-0.6971,0.6833
61839,0.1456,-0.7030,0.6381
61877,0.1438,-0.7067,0.6034
61893,0.1428,-0.7078,0.5906
61916,0.1409,-0.7085,0.5736
61938,0.1399,-0.7083,0.5692
61955,0.1390,-0.7076,0.5674
61979,0.1376,-0.7057,0.5702
62013,0.1364,-0.7029,0.5807
62057,0.1351,-0.6997,0.5981
62079,0.1342,-0.6960,0.6230
62100,0.1337,-0.6940,0.6387
62120,0.1332,-0.6917,0.6567
62141,0.1327,-0.6888,0.6771
62176,0.1315,-0.6765,0.7515
62193,0.1312,-0.6708,0.7791
62236,0.1317,-0.6570,0.8337
62258,0.1343,-0.6417,0.8805
62283,0.1366,-0.6343,0.8979
62304,0.1398,-0.6276,0.9100
62326,0.1486,-0.6177,0.9144
62347,0.1542,-0.6154,0.9058
62369,0.1606,-0.6151,0.8893
62395,0.1755,-0.6223,0.8334
62431,0.1923,-0.6399,0.7493
62481,0.2185,-0.6846,0.5825
62497,0.2271,-0.7034,0.5195
62519,0.2354,-0.7235,0.4547
62542,0.2506,-0.7664,0.3234
62559,0.2574,-0.7885,0.2590
62581,0.2638,-0.8103,0.1969
62600,0.2694,-0.8317,0.1382
62653,0.2854,-0.9044,-0.0481
62674,0.2877,-0.9178,-0.0792
62692,0.2893,-0.9288,-0.1030
62713,0.2900,-0.9371,-0.1193
62736,0.2894,-0.9453,-0.1283
62779,0.2855,-0.9417,-0.1057
62804,0.2783,-0.9268,-0.0531
62832,0.2737,-0.9155,-0.0165
62854,0.2621,-0.8871,0.0750
62881,0.2555,-0.8706,0.1284
62903,0.2413,-0.8348,0.2471
62925,0.2339,-0.8164,0.3103
62942,0.2264,-0.7981,0.3750
62968,0.2117,-0.7631,0.5043
62987,0.2045,-0.7468,0.5668
63043,0.1846,-0.7059,0.7343
63087,0.1686,-0.6792,0.8549
63104,0.1644,-0.6736,0.8822
63125,0.1608,-0.6698,0.9026
63148,0.1552,-0.6669,0.9225
63165,0.1532,-0.6676,0.9225
63187,0.1516,-0.6696,0.9165
63212,0.1506,-0.6725,0.9048
63241,0.1495,-0.6809,0.8676
63270,0.1494,-0.6910,0.8168
63292,0.1495,-0.6963,0.7885
63314,0.1499,-0.7063,0.7299
63336,0.1501,-0.7107,0.7012
63400,0.1508,-0.7227,0.6036
63438,0.1508,-0.7247,0.5707
63460,0.1505,-0.7244,0.5499
63478,0.1504,-0.7234,0.5439
63499,0.1503,-0.7219,0.5406
63521,0.1500,-0.7201,0.5398
63538,0.1499,-0.7181,0.5413
63561,0.1494,-0.7136,0.5502
63583,0.1492,-0.7113,0.5573
63600,0.1488,-0.7090,0.5660
63619,0.1484,-0.7067,0.5767
63641,0.1475,-0.7025,0.6040
63719,0.1444,-0.6932,0.6877
63735,0.1438,-0.6903,0.7145
63758,0.1432,-0.6829,0.7717
63780,0.1437,-0.6786,0.8005
63797,0.1447,-0.6741,0.8279
63823,0.1489,-0.6652,0.8740
63844,0.1522,-0.6610,0.8904
63873,0.1610,-0.6545,0.9041
63894,0.1664,-0.6525,0.8999
63918,0.1725,-0.6517,0.8876
63941,0.1862,-0.6549,0.8378
63963,0.1937,-0.6594,0.8005
64010,0.2183,-0.6864,0.6471
64034,0.2267,-0.6998,0.5853
64050,0.2351,-0.7152,0.5200
64070,0.2509,-0.7506,0.3846
64121,0.2699,-0.8097,0.1888
64142,0.2745,-0.8293,0.1304
64158,0.2784,-0.8483,0.0770
64180,0.2814,-0.8661,0.0297
64203,0.2844,-0.8973,-0.0449
64220,0.2845,-0.9103,-0.0714
64245,0.2838,-0.9210,-0.0906
64267,0.2793,-0.9358,-0.1066
64322,0.2660,-0.9385,-0.0765
64344,0.2600,-0.9340,-0.0530
64364,0.2535,-0.9268,-0.0233
64386,0.2393,-0.9049,0.0532
64409,0.2316,-0.8907,0.0990
64432,0.2158,-0.8573,0.2028
64450,0.2081,-0.8389,0.2594
64486,0.1934,-0.8004,0.3783
64507,0.1865,-0.7814,0.4388
64533,0.1744,-0.7450,0.5577
64554,0.1691,-0.7285,0.6141
64603,0.1561,-0.6876,0.7615
64619,0.1528,-0.6772,0.8009
64641,0.1499,-0.6687,0.8347
64659,0.1475,-0.6620,0.8624
64714,0.1404,-0.6509,0.9122
64737,0.1392,-0.6516,0.9100
64759,0.1381,-0.6534,0.9028
64782,0.1364,-0.6597,0.8751
64799,0.1356,-0.6639,0.8560
64821,0.1349,-0.6687,0.8340
64844,0.1337,-0.6794,0.7848
64883,0.1327,-0.6906,0.7328
64922,0.1317,-0.7010,0.6832
64938,0.1313,-0.7058,0.6606
64962,0.1306,-0.7139,0.6223
64981,0.1302,-0.7170,0.6075
65000,0.1300,-0.7196,0.5963
65020,0.1299,-0.7216,0.5887
65041,0.1299,-0.7238,0.5861
65092,0.1307,-0.7228,0.6124
65113,0.1311,-0.7213,0.6285
65130,0.1316,-0.7192,0.6476
65152,0.1320,-0.7167,0.6689
65175,0.1326,-0.7097,0.7158
65217,0.1329,-0.7009,0.7621
65239,0.1331,-0.6913,0.8002
65256,0.1333,-0.6868,0.8138
65273,0.1335,-0.6827,0.8229
65295,0.1340,-0.6796,0.8265
65332,0.1360,-0.6769,0.8162
65354,0.1396,-0.6807,0.7798
65379,0.1422,-0.6854,0.7517
65400,0.1453,-0.6921,0.7174
65421,0.1528,-0.7115,0.6316
65445,0.1572,-0.7240,0.5817
65470,0.1669,-0.7537,0.4720
65491,0.1720,-0.7701,0.4143
65528,0.1818,-0.8054,0.2981
65558,0.1907,-0.8412,0.1874
65579,0.1945,-0.8584,0.1365
65605,0.2007,-0.8901,0.0469
65626,0.2029,-0.9041,0.0093
65648,0.2046,-0.9165,-0.0228
65665,0.2057,-0.9274,-0.0492
65684,0.2063,-0.9436,-0.0844
65706,0.2059,-0.9489,-0.0930
65767,0.2006,-0.9500,-0.0732
65788,0.1984,-0.9452,-0.0562
65831,0.1935,-0.9302,-0.0099
65853,0.1885,-0.9087,0.0507
65870,0.1860,-0.8960,0.0854
65887,0.1837,-0.8823,0.1232
65909,0.1815,-0.8678,0.1633
65946,0.1777,-0.8370,0.2968
65970,0.1747,-0.8058,0.3446
65991,0.1735,-0.7904,0.3936
66013,0.1716,-0.7614,0.4930
66032,0.1709,-0.7479,0.5426
66052,0.1703,-0.7354,0.5912
66074,0.1697,-0.7238,0.6382
66091,0.1689,-0.7133,0.6829
66132,0.1664,-0.6887,0.7966
66176,0.1641,-0.6783,0.8497
66198,0.1611,-0.6729,0.8811
66215,0.1597,-0.6719,0.8883
66237,0.1581,-0.6721,0.8899
66275,0.1548,-0.6755,0.8774
66299,0.1515,-0.6823,0.8470
66320,0.1500,-0.6865,0.8267
66365,0.1459,-0.7014,0.7531
66386,0.1447,-0.7065,0.7267
66443,0.1409,-0.7239,0.6290
66464,0.1401,-0.7268,0.6090
66481,0.1396,-0.7292,0.5914
66505,0.1392,-0.7310,0.5764
66528,0.1385,-0.7325,0.5544
66569,0.1384,-0.7318,0.5430
66591,0.1388,-0.7291,0.5410
66609,0.1392,-0.7273,0.5430
66630,0.1395,-0.7251,0.5468
66652,0.1401,-0.7227,0.5518
66669,0.1407,-0.7201,0.5581
66692,0.1421,-0.7146,0.5736
66736,0.1436,-0.7091,0.5924
66782,0.1460,-0.7013,0.6285
66807,0.1476,-0.6960,0.6609
66828,0.1484,-0.6932,0.6801
66850,0.1493,-0.6901,0.7012
66867,0.1501,-0.6865,0.7240
66890,0.1522,-0.6782,0.7728
66908,0.1534,-0.6735,0.7975
66952,0.1593,-0.6580,0.8622
66973,0.1621,-0.6528,0.8772
66998,0.1654,-0.6481,0.8873
67040,0.1787,-0.6389,0.8805
67062,0.1843,-0.6387,0.8638
67081,0.1904,-0.6404,0.8394
67104,0.2047,-0.6503,0.7682
67154,0.2308,-0.6826,0.6125
67175,0.2404,-0.6978,0.5507
67195,0.2501,-0.7147,0.4856
67218,0.2695,-0.7531,0.3500
67240,0.2787,-0.7737,0.2821
67257,0.2874,-0.7944,0.2158
67279,0.2953,-0.8152,0.1525
67301,0.3086,-0.8545,0.0382
67364,0.3242,-0.9143,-0.1173
67381,0.3259,-0.9240,-0.1379
67402,0.3267,-0.9312,-0.1505
67424,0.3267,-0.9359,-0.1552
67441,0.3258,-0.9379,-0.1517
67464,0.3215,-0.9338,-0.1213
67486,0.3182,-0.9276,-0.0947
67509,0.3141,-0.9188,-0.0610
67526,0.3091,-0.9072,-0.0205
67549,0.2964,-0.8767,0.0782
67586,0.2805,-0.8380,0.1965
67607,0.2715,-0.8164,0.2607
67644,0.2416,-0.7478,0.4629
67661,0.2310,-0.7251,0.5299
67683,0.2203,-0.7031,0.5950
67705,0.2097,-0.6825,0.6573
67727,0.1896,-0.6462,0.7700
67748,0.1803,-0.6312,0.8187
67770,0.1716,-0.6187,0.8615
67816,0.1510,-0.5956,0.9493
67837,0.1459,-0.5928,0.9645
67854,0.1418,-0.5923,0.9725
67877,0.1365,-0.5975,0.9684
67899,0.1350,-0.6028,0.9572
67966,0.1357,-0.6359,0.8669
68000,0.1385,-0.6556,0.8063
68020,0.1401,-0.6653,0.7749
68044,0.1434,-0.6832,0.7142
68070,0.1450,-0.6912,0.6862
68092,0.1477,-0.7043,0.6370
68114,0.1487,-0.7095,0.6166
68133,0.1497,-0.7135,0.5992
68156,0.1508,-0.7184,0.5740
68173,0.1511,-0.7194,0.5660
68191,0.1512,-0.7194,0.5609
68213,0.1514,-0.7186,0.5585
68246,0.1511,-0.7152,0.5607
68292,0.1505,-0.7068,0.5778
68315,0.1503,-0.7035,0.5861
68336,0.1501,-0.6970,0.6062
68355,0.1501,-0.6937,0.6179
68377,0.1501,-0.6904,0.6310
68394,0.1501,-0.6871,0.6455
68416,0.1500,-0.6836,0.6616
68463,0.1495,-0.6715,0.7206
68485,0.1498,-0.6616,0.7673
68503,0.1505,-0.6562,0.7916
68553,0.1565,-0.6403,0.8589
68569,0.1602,-0.6356,0.8762
68594,0.1648,-0.6315,0.8893
68616,0.1768,-0.6257,0.8992
68655,0.1923,-0.6248,0.8824
68676,0.2013,-0.6265,0.8629
68702,0.2216,-0.6357,0.8016
68723,0.2330,-0.6436,0.7601
68745,0.2451,-0.6537,0.7119
68762,0.2578,-0.6659,0.6576
68785,0.2848,-0.6967,0.5339
68803,0.2986,-0.7147,0.4664
68892,0.3613,-0.8156,0.1190
68908,0.3711,-0.8348,0.0555
68931,0.3865,-0.8689,-0.0571
68953,0.3918,-0.8831,-0.1049
68971,0.3956,-0.8949,-0.1460
68990,0.3978,-0.9044,-0.1799
69006,0.3984,-0.9114,-0.2063
69051,0.3923,-0.9172,-0.2347
69072,0.3881,-0.9143,-0.2266
69098,0.3771,-0.9014,-0.1825
69119,0.3706,-0.8915,-0.1470
69156,0.3557,-0.8657,-0.0514
69172,0.3474,-0.8506,0.0073
69195,0.3291,-0.8171,0.1417
69212,0.3192,-0.7996,0.2151
69263,0.2866,-0.7471,0.4441
69284,0.2749,-0.7305,0.5194
69304,0.2627,-0.7146,0.5920
69327,0.2377,-0.6859,0.7252
69349,0.2251,-0.6735,0.7838
69366,0.2125,-0.6624,0.8362
69388,0.2002,-0.6527,0.8816
69407,0.1768,-0.6383,0.9501
69445,0.1560,-0.6304,0.9874
69478,0.1388,-0.6285,0.9952
69494,0.1316,-0.6298,0.9889
69516,0.1255,-0.6320,0.9767
69540,0.1165,-0.6394,0.9375
69577,0.1113,-0.6494,0.8839
69598,0.1101,-0.6550,0.8538
69640,0.1110,-0.6724,0.7600
69661,0.1123,-0.6777,0.7300
69685,0.1141,-0.6830,0.7015
69708,0.1184,-0.6919,0.6514
69730,0.1207,-0.6957,0.6304
69747,0.1230,-0.6990,0.6123
69783,0.1274,-0.7039,0.5856
69808,0.1311,-0.7067,0.5715
69825,0.1327,-0.7074,0.5690
69847,0.1339,-0.7076,0.5692
69910,0.1365,-0.7052,0.5961
69935,0.1361,-0.7015,0.6248
69956,0.1357,-0.6989,0.6432
69973,0.1353,-0.6956,0.6642
69992,0.1345,-0.6917,0.6877
70008,0.1339,-0.6869,0.7136
70031,0.1333,-0.6813,0.7413
70051,0.1331,-0.6680,0.7994
70104,0.1370,-0.6456,0.8798
70139,0.1444,-0.6327,0.9160
70160,0.1497,-0.6278,0.9258
70177,0.1560,-0.6243,0.9288
70200,0.1714,-0.6224,0.9122
70225,0.1801,-0.6244,0.8920
70275,0.2092,-0.6432,0.7837
70297,0.2299,-0.6663,0.6770
70315,0.2402,-0.6808,0.6155
70335,0.2505,-0.6970,0.5499
70357,0.2605,-0.7147,0.4814
70382,0.2793,-0.7539,0.3406
70403,0.2878,-0.7744,0.2706
70429,0.3027,-0.8159,0.1381
70460,0.3088,-0.8359,0.0776
70482,0.3180,-0.8729,-0.0259
70500,0.3209,-0.8890,-0.0675
70521,0.3229,-0.9033,-0.1014
70544,0.3232,-0.9250,-0.1453
70562,0.3218,-0.9323,-0.1549
70583,0.3192,-0.9368,-0.1562
70605,0.3158,-0.9387,-0.1495
70622,0.3113,-0.9381,-0.1351
70639,0.3060,-0.9348,-0.1135
70661,0.2933,-0.9208,-0.0504
70705,0.2781,-0.8970,0.0345
70736,0.2607,-0.8649,0.1362
70758,0.2426,-0.8267,0.2494
70776,0.2335,-0.8063,0.3087
70797,0.2247,-0.7855,0.3689
70819,0.2163,-0.7649,0.4293
70879,0.1871,-0.6896,0.6591
70902,0.1810,-0.6737,0.7101
70925,0.1703,-0.6467,0.7999
70947,0.1655,-0.6359,0.8376
70964,0.1613,-0.6268,0.8700
71003,0.1543,-0.6145,0.9176
71025,0.1492,-0.6095,0.9415
71042,0.1473,-0.6095,0.9449
71061,0.1460,-0.6111,0.9429
71111,0.1445,-0.6233,0.9084
71129,0.1449,-0.6292,0.8894
71150,0.1455,-0.6356,0.8676
71173,0.1475,-0.6494,0.8182
71190,0.1487,-0.6565,0.7922
71212,0.1501,-0.6633,0.7660
71235,0.1530,-0.6759,0.7156
71282,0.1559,-0.6866,0.6709
71315,0.1583,-0.6949,0.6349
71331,0.1593,-0.6981,0.6205
71354,0.1609,-0.7026,0.5996
71376,0.1614,-0.7041,0.5931
71396,0.1617,-0.7050,0.5891
71419,0.1620,-0.7052,0.5887
71441,0.1619,-0.7047,0.5924
71475,0.1613,-0.7020,0.6075
71496,0.1608,-0.7000,0.6191
71513,0.1600,-0.6971,0.6335
71536,0.1580,-0.6896,0.6705
71557,0.1566,-0.6847,0.6929
71575,0.1553,-0.6788,0.7173
71619,0.1520,-0.6575,0.7982
71636,0.1519,-0.6495,0.8250
71653,0.1525,-0.6417,0.8502
71674,0.1539,-0.6342,0.8727
71729,0.1658,-0.6173,0.9139
71751,0.1799,-0.6139,0.9108
71769,0.1887,-0.6152,0.8981
71790,0.1985,-0.6188,0.8777
71813,0.2200,-0.6324,0.8138
71830,0.2312,-0.6426,0.7710
71856,0.2427,-0.6549,0.7216
71878,0.2648,-0.6847,0.6066
71927,0.2849,-0.7200,0.4086
71960,0.3016,-0.7581,0.2725
71977,0.3145,-0.7969,0.2067
71996,0.3192,-0.8157,0.1439
72017,0.3230,-0.8339,0.0851
72038,0.3259,-0.8511,0.0311
72060,0.3287,-0.8815,-0.0586
72081,0.3290,-0.8943,-0.0933
72131,0.3246,-0.9208,-0.1522
72153,0.3217,-0.9249,-0.1566
72176,0.3138,-0.9260,-0.1431
72195,0.3090,-0.9227,-0.1257
72215,0.3036,-0.9170,-0.1018
72232,0.2977,-0.9087,-0.0717
72266,0.2849,-0.8846,0.0061
72282,0.2782,-0.8693,0.0530
72325,0.2574,-0.8132,0.2185
72345,0.2506,-0.7926,0.2797
72362,0.2439,-0.7717,0.3425
72384,0.2374,-0.7511,0.4062
72407,0.2251,-0.7118,0.5327
72426,0.2194,-0.6937,0.5939
72448,0.2140,-0.6771,0.6526
72471,0.2039,-0.6483,0.7599
72506,0.1947,-0.6263,0.8492
72527,0.1903,-0.6179,0.8856
72575,0.1777,-0.6030,0.9581
72596,0.1738,-0.6013,0.9697
72613,0.1700,-0.6012,0.9751
72636,0.1631,-0.6050,0.9688
72658,0.1599,-0.6086,0.9581
72676,0.1570,-0.6134,0.9430
72707,0.1520,-0.6251,0.9026
72752,0.1467,-0.6462,0.8264
72773,0.1458,-0.6534,0.7997
72791,0.1453,-0.6606,0.7732
72812,0.1450,-0.6675,0.7476
72835,0.1456,-0.6802,0.7006
72878,0.1473,-0.6907,0.6615
72895,0.1484,-0.6949,0.6454
72959,0.1545,-0.7062,0.6057
72984,0.1578,-0.7084,0.6000
73003,0.1594,-0.7087,0.6002
73023,0.1610,-0.7086,0.6027
73045,0.1624,-0.7080,0.6071
73065,0.1649,-0.7054,0.6224
73084,0.1659,-0.7032,0.6338
73101,0.1666,-0.7004,0.6478
73132,0.1675,-0.6926,0.6842
73183,0.1676,-0.6746,0.7572
73200,0.1678,-0.6670,0.7844
73219,0.1683,-0.6588,0.8120
73239,0.1692,-0.6505,0.8389
73256,0.1708,-0.6421,0.8638
73279,0.1761,-0.6267,0.9038
73297,0.1802,-0.6202,0.9165
73353,0.1984,-0.6101,0.9144
73374,0.2064,-0.6107,0.8982
73391,0.2153,-0.6139,0.8740
73414,0.2351,-0.6282,0.8021
73436,0.2457,-0.6390,0.7555
73483,0.2773,-0.6854,0.5825
73500,0.2870,-0.7043,0.5172
73531,0.3033,-0.7451,0.3818
73552,0.3098,-0.7660,0.3142
73578,0.3187,-0.8068,0.1851
73599,0.3210,-0.8258,0.1259
73621,0.3223,-0.8438,0.0715
73638,0.3221,-0.8600,0.0231
73661,0.3192,-0.8871,-0.0536
73683,0.3165,-0.8976,-0.0807
73724,0.3059,-0.9149,-0.1128
73745,0.3019,-0.9156,-0.1072
73787,0.2936,-0.9094,-0.0723
73809,0.2849,-0.8928,-0.0088
73827,0.2804,-0.8807,0.0321
73848,0.2758,-0.8666,0.0782
73871,0.2660,-0.8324,0.1837
73888,0.2610,-0.8132,0.2415
73907,0.2559,-0.7931,0.3014
73928,0.2509,-0.7723,0.3629
73992,0.2321,-0.6925,0.6080
74013,0.2279,-0.6750,0.6650
74033,0.2242,-0.6591,0.7188
74054,0.2177,-0.6326,0.8134
74102,0.2100,-0.6078,0.9148
74146,0.2061,-0.6014,0.9513
74161,0.2043,-0.6010,0.9601
74184,0.2017,-0.6050,0.9592
74206,0.2004,-0.6089,0.9506
74228,0.1995,-0.6140,0.9370
74252,0.1979,-0.6266,0.8978
74281,0.1971,-0.6338,0.8738
74313,0.1957,-0.6487,0.8206
74329,0.1951,-0.6561,0.7927
74352,0.1935,-0.6702,0.7386
74403,0.1907,-0.6880,0.6687
74439,0.1882,-0.6967,0.6337
74455,0.1870,-0.7001,0.6202
74477,0.1857,-0.7028,0.6094
74500,0.1831,-0.7063,0.5955
74523,0.1820,-0.7072,0.5920
74544,0.1808,-0.7075,0.5906
74567,0.1790,-0.7069,0.5929
74600,0.1776,-0.7051,0.6006
74621,0.1772,-0.7039,0.6058
74639,0.1770,-0.7025,0.6118
74660,0.1769,-0.7012,0.6183
74683,0.1771,-0.6982,0.6322
74701,0.1774,-0.6969,0.6393
74739,0.1781,-0.6946,0.6531
74755,0.1787,-0.6936,0.6595
74787,0.1798,-0.6920,0.6708
74808,0.1804,-0.6915,0.6755
74834,0.1815,-0.6909,0.6825
74855,0.1820,-0.6908,0.6846
74878,0.1830,-0.6908,0.6864
74896,0.1833,-0.6909,0.6860
74917,0.1836,-0.6912,0.6849
74939,0.1838,-0.6914,0.6832
74999,0.1841,-0.6929,0.6722
75049,0.1836,-0.6942,0.6630
75068,0.1833,-0.6947,0.6603
75089,0.1830,-0.6951,0.6578
75111,0.1820,-0.6956,0.6539
75131,0.1815,-0.6957,0.6525
75158,0.1803,-0.6954,0.6506
75180,0.1796,-0.6952,0.6501
75201,0.1790,-0.6947,0.6499
75233,0.1775,-0.6935,0.6499
75252,0.1769,-0.6927,0.6501
75275,0.1755,-0.6910,0.6510
75296,0.1749,-0.6902,0.6516
75317,0.1744,-0.6893,0.6522
75350,0.1735,-0.6875,0.6536
75396,0.1725,-0.6854,0.6559
75421,0.1720,-0.6844,0.6576
75442,0.1720,-0.6841,0.6583
75464,0.1719,-0.6838,0.6591
75481,0.1720,-0.6837,0.6598
75504,0.1722,-0.6838,0.6611
75526,0.1725,-0.6841,0.6617
75550,0.1727,-0.6844,0.6622
75568,0.1733,-0.6855,0.6628
75590,0.1736,-0.6863,0.6630
75631,0.1742,-0.6879,0.6630
75664,0.1748,-0.6896,0.6627
75680,0.1749,-0.6906,0.6625
75703,0.1752,-0.6923,0.6619
75725,0.1753,-0.6930,0.6615
75742,0.1753,-0.6937,0.6610
75765,0.1753,-0.6943,0.6606
75787,0.1753,-0.6954,0.6598
75819,0.1752,-0.6960,0.6589
75840,0.1752,-0.6963,0.6586
75857,0.1752,-0.6964,0.6583
75879,0.1752,-0.6964,0.6582
75902,0.1752,-0.6963,0.6581
75920,0.1753,-0.6960,0.6582
75971,0.1758,-0.6954,0.6587
76029,0.1770,-0.6946,0.6591
76054,0.1774,-0.6945,0.6588
76074,0.1777,-0.6942,0.6586
76095,0.1785,-0.6938,0.6580
76119,0.1787,-0.6937,0.6575
76141,0.1790,-0.6935,0.6570
76161,0.1791,-0.6929,0.6561
76176,0.1792,-0.6929,0.6561
76213,0.1793,-0.6919,0.6550
76234,0.1793,-0.6915,0.6548
76267,0.1791,-0.6907,0.6547
76284,0.1791,-0.6902,0.6547
76306,0.1790,-0.6898,0.6549
76329,0.1787,-0.6890,0.6556
76346,0.1786,-0.6885,0.6561
76368,0.1786,-0.6881,0.6566
76394,0.1785,-0.6876,0.6583
76437,0.1783,-0.6873,0.6614
76459,0.1783,-0.6869,0.6682
76476,0.1782,-0.6863,0.6738
76498,0.1780,-0.6853,0.6814
76520,0.1777,-0.6837,0.6914
76537,0.1772,-0.6813,0.7039
76574,0.1743,-0.6675,0.7576
76623,0.1700,-0.6417,0.8295
76643,0.1688,-0.6310,0.8544
76661,0.1680,-0.6195,0.8782
76682,0.1677,-0.6079,0.8995
76705,0.1697,-0.5862,0.9304
76723,0.1719,-0.5769,0.9377
76744,0.1750,-0.5695,0.9382
76765,0.1792,-0.5641,0.9313
76789,0.1899,-0.5613,0.8934
76806,0.1967,-0.5642,0.8625
76827,0.2040,-0.5704,0.8239
76910,0.2501,-0.6475,0.5382
76926,0.2604,-0.6707,0.4689
76948,0.2704,-0.6954,0.3981
76973,0.2896,-0.7478,0.2571
76995,0.2985,-0.7744,0.1891
77014,0.3068,-0.8004,0.1243
77033,0.3145,-0.8254,0.0637
77081,0.3346,-0.8904,-0.0842
77106,0.3462,-0.9216,-0.1486
77127,0.3517,-0.9329,-0.1692
77178,0.3667,-0.9465,-0.1840
77194,0.3708,-0.9441,-0.1733
77220,0.3773,-0.9288,-0.1295
77241,0.3796,-0.9163,-0.0964
77272,0.3828,-0.8823,-0.0096
77293,0.3834,-0.8618,0.0433
77319,0.3824,-0.8162,0.1654
77340,0.3805,-0.7925,0.2327
77362,0.3774,-0.7689,0.3027
77381,0.3669,-0.7251,0.4468
77402,0.3593,-0.7061,0.5184
77427,0.3500,-0.6892,0.5884
77478,0.3110,-0.6530,0.7761
77517,0.2551,-0.6355,0.9088
77534,0.2333,-0.6331,0.9375
77555,0.2102,-0.6318,0.9578
77578,0.1621,-0.6331,0.9738
77596,0.1378,-0.6350,0.9705
77617,0.1140,-0.6378,0.9606
77635,0.0911,-0.6412,0.9449
77675,0.0493,-0.6494,0.9010
77698,0.0150,-0.6589,0.8473
77729,-0.0104,-0.6689,0.7916
77751,-0.0195,-0.6740,0.7651
77773,-0.0262,-0.6788,0.7402
77818,-0.0328,-0.6915,0.6798
77837,-0.0311,-0.6951,0.6649
77859,-0.0234,-0.7004,0.6433
77881,-0.0179,-0.7024,0.6364
77913,-0.0049,-0.7046,0.6298
77934,0.0023,-0.7050,0.6296
77960,0.0167,-0.7043,0.6348
77978,0.0238,-0.7035,0.6394
77997,0.0305,-0.7024,0.6451
78020,0.0369,-0.7012,0.6516
78043,0.0482,-0.6984,0.6656
78063,0.0531,-0.6969,0.6727
78125,0.0663,-0.6913,0.6957
78173,0.0697,-0.6875,0.7039
78195,0.0697,-0.6864,0.7048
78217,0.0693,-0.6853,0.7050
78243,0.0675,-0.6832,0.7032
78259,0.0663,-0.6823,0.7017
78281,0.0649,-0.6814,0.6998
78326,0.0604,-0.6792,0.6931
78346,0.0591,-0.6787,0.6909
78371,0.0569,-0.6780,0.6871
78392,0.0560,-0.6779,0.6855
78414,0.0555,-0.6779,0.6842
78431,0.0553,-0.6780,0.6833
78467,0.0554,-0.6787,0.6825
78484,0.0564,-0.6798,0.6829
78528,0.0577,-0.6815,0.6841
78550,0.0593,-0.6833,0.6858
78568,0.0601,-0.6843,0.6866
78589,0.0608,-0.6854,0.6875
78611,0.0614,-0.6864,0.6882
78628,0.0620,-0.6874,0.6888
78651,0.0627,-0.6892,0.6897
78673,0.0631,-0.6902,0.6898
78707,0.0634,-0.6918,0.6898
78728,0.0635,-0.6925,0.6898
78774,0.0632,-0.6945,0.6892
78795,0.0631,-0.6948,0.6890
78818,0.0627,-0.6956,0.6887
78839,0.0624,-0.6958,0.6885
78861,0.0621,-0.6960,0.6884
78880,0.0615,-0.6962,0.6879
78896,0.0613,-0.6962,0.6876
78918,0.0609,-0.6960,0.6873
78965,0.0602,-0.6957,0.6858
78984,0.0599,-0.6956,0.6853
79006,0.0598,-0.6954,0.6847
79026,0.0597,-0.6953,0.6841
79076,0.0596,-0.6948,0.6824
79097,0.0596,-0.6943,0.6815
79118,0.0597,-0.6940,0.6812
79140,0.0598,-0.6936,0.6809
79189,0.0603,-0.6919,0.6804
79214,0.0608,-0.6904,0.6804
79235,0.0610,-0.6896,0.6805
79258,0.0614,-0.6879,0.6810
79275,0.0615,-0.6871,0.6813
79300,0.0616,-0.6864,0.6816
79319,0.0616,-0.6858,0.6820
79359,0.0614,-0.6846,0.6831
79398,0.0610,-0.6846,0.6837
79414,0.0608,-0.6848,0.6840
79436,0.0605,-0.6851,0.6841
79459,0.0599,-0.6860,0.6843
79477,0.0597,-0.6866,0.6844
79501,0.0594,-0.6873,0.6843
79523,0.0590,-0.6887,0.6841
79567,0.0583,-0.6903,0.6836
79589,0.0577,-0.6919,0.6827
79606,0.0574,-0.6926,0.6824
79628,0.0571,-0.6932,0.6820
79650,0.0568,-0.6938,0.6816
79687,0.0564,-0.6954,0.6815
79705,0.0564,-0.6958,0.6820
79743,0.0570,-0.6963,0.6840
79764,0.0576,-0.6964,0.6859
79790,0.0591,-0.6960,0.6934
79811,0.0601,-0.6954,0.6997
79831,0.0610,-0.6942,0.7085
79859,0.0632,-0.6887,0.7358
79880,0.0643,-0.6840,0.7548
79906,0.0668,-0.6696,0.8026
79944,0.0696,-0.6493,0.8585
79965,0.0710,-0.6377,0.8867
80011,0.0768,-0.6030,0.9547
80027,0.0795,-0.5933,0.9670
80048,0.0828,-0.5851,0.9720
80069,0.0916,-0.5757,0.9563
80087,0.0973,-0.5752,0.9344
80112,0.1039,-0.5779,0.9027
80134,0.1201,-0.5940,0.8105
80201,0.1647,-0.6663,0.5310
80224,0.1779,-0.6913,0.4479
80245,0.1918,-0.7181,0.3624
80268,0.2202,-0.7755,0.1907
80304,0.2483,-0.8340,0.0291
80336,0.2739,-0.8883,-0.1106
80357,0.2853,-0.9122,-0.1688
80374,0.2954,-0.9333,-0.2180
80397,0.3116,-0.9647,-0.2861
80419,0.3176,-0.9742,-0.3038
80443,0.3223,-0.9792,-0.3102
80466,0.3270,-0.9752,-0.2881
80488,0.3274,-0.9663,-0.2598
80505,0.3264,-0.9531,-0.2206
80522,0.3241,-0.9358,-0.1713
80545,0.3152,-0.8910,-0.0458
80596,0.2911,-0.8090,0.1897
80629,0.2678,-0.7538,0.3605
80645,0.2540,-0.7284,0.4456
80667,0.2390,-0.7051,0.5284
80689,0.2228,-0.6844,0.6079
80706,0.2056,-0.6667,0.6827
80723,0.1875,-0.6521,0.7520
80746,0.1498,-0.6323,0.8699
80785,0.1117,-0.6250,0.9561
80807,0.0757,-0.6288,1.0071
80825,0.0591,-0.6343,1.0192
80846,0.0438,-0.6420,1.0226
80868,0.0300,-0.6514,1.0178
80890,0.0076,-0.6748,0.9875
80932,-0.0074,-0.7012,0.9381
80985,-0.0176,-0.7390,0.8555
81005,-0.0184,-0.7582,0.8096
81021,-0.0178,-0.7650,0.7914
81042,-0.0166,-0.7699,0.7765
81062,-0.0150,-0.7729,0.7645
81084,-0.0131,-0.7743,0.7546
81106,-0.0079,-0.7731,0.7379
81126,-0.0048,-0.7714,0.7291
81184,0.0092,-0.7657,0.6902
81233,0.0309,-0.7640,0.6196
81255,0.0494,-0.7666,0.5514
81273,0.0597,-0.7692,0.5110
81294,0.0706,-0.7725,0.4668
81313,0.0818,-0.7769,0.4191
81335,0.1055,-0.7882,0.3153
81357,0.1179,-0.7954,0.2604
81379,0.1305,-0.8036,0.2043
81419,0.1692,-0.8341,0.0370
81440,0.1820,-0.8457,-0.0157
81464,0.1947,-0.8578,-0.0657
81487,0.2191,-0.8821,-0.1539
81535,0.2500,-0.9149,-0.2473
81554,0.2581,-0.9238,-0.2660
81575,0.2648,-0.9313,-0.2780
81598,0.2734,-0.9412,-0.2808
81642,0.2750,-0.9429,-0.2557
81664,0.2689,-0.9358,-0.2046
81682,0.2629,-0.9288,-0.1700
81703,0.2552,-0.9197,-0.1301
81725,0.2458,-0.9084,-0.0853
81742,0.2350,-0.8956,-0.0361
81760,0.2228,-0.8812,0.0168
81781,0.1951,-0.8495,0.1326
81820,0.1647,-0.8160,0.2581
81856,0.1337,-0.7838,0.3899
81874,0.1185,-0.7688,0.4570
81897,0.0902,-0.7415,0.5905
81919,0.0773,-0.7296,0.6555
81936,0.0652,-0.7190,0.7183
81962,0.0447,-0.7020,0.8342
81987,0.0361,-0.6957,0.8860
82029,0.0176,-0.6847,1.0109
82050,0.0137,-0.6836,1.0409
82072,0.0109,-0.6836,1.0647
82095,0.0087,-0.6871,1.0930
82142,0.0140,-0.6986,1.0857
82184,0.0228,-0.7085,1.0471
82214,0.0350,-0.7189,0.9817
82266,0.0568,-0.7344,0.8378
82288,0.0642,-0.7395,0.7794
82311,0.0787,-0.7502,0.6511
82333,0.0854,-0.7559,0.5826
82350,0.0918,-0.7618,0.5123
82373,0.1033,-0.7751,0.3694
82397,0.1085,-0.7828,0.2981
82435,0.1191,-0.8007,0.1589
82479,0.1360,-0.8319,-0.0308
82495,0.1417,-0.8431,-0.0863
82517,0.1473,-0.8545,-0.1370
82540,0.1582,-0.8768,-0.2213
82557,0.1635,-0.8875,-0.2539
82579,0.1683,-0.8975,-0.2798
82605,0.1777,-0.9148,-0.3113
82648,0.1860,-0.9279,-0.3168
82670,0.1935,-0.9358,-0.2986
82688,0.1969,-0.9377,-0.2815
82709,0.2000,-0.9381,-0.2596
82731,0.2026,-0.9368,-0.2333
82748,0.2048,-0.9336,-0.2028
82784,0.2076,-0.9213,-0.0878
82832,0.2072,-0.8876,0.0077
82854,0.2031,-0.8566,0.1165
82877,0.1997,-0.8395,0.1753
82898,0.1953,-0.8217,0.2363
82921,0.1837,-0.7859,0.3643
82939,0.1769,-0.7686,0.4302
82960,0.1694,-0.7521,0.4969
82981,0.1616,-0.7367,0.5641
83007,0.1458,-0.7097,0.6975
83023,0.1381,-0.6985,0.7629
83044,0.1307,-0.6887,0.8265
83087,0.1117,-0.6680,1.0001
83117,0.1022,-0.6599,1.0936
83138,0.0988,-0.6573,1.1313
83193,0.0942,-0.6537,1.1997
83218,0.0966,-0.6543,1.2018
83267,0.1080,-0.6592,1.1324
83290,0.1134,-0.6622,1.0901
83310,0.1194,-0.6661,1.0385
83330,0.1321,-0.6769,0.9106
83351,0.1384,-0.6841,0.8359
83399,0.1549,-0.7129,0.5822
83423,0.1591,-0.7249,0.4918
83445,0.1649,-0.7522,0.3107
83467,0.1666,-0.7672,0.2227
83499,0.1678,-0.7990,0.0576
83520,0.1675,-0.8153,-0.0175
83545,0.1656,-0.8477,-0.1483
83567,0.1644,-0.8630,-0.2030
83589,0.1632,-0.8777,-0.2500
83606,0.1621,-0.8911,-0.2891
83631,0.1600,-0.9138,-0.3428
83650,0.1593,-0.9225,-0.3574
83732,0.1571,-0.9319,-0.3130
83748,0.1564,-0.9261,-0.2823
83770,0.1553,-0.9176,-0.2451
83793,0.1514,-0.8926,-0.1523
83811,0.1486,-0.8767,-0.0974
83835,0.1451,-0.8593,-0.0374
83857,0.1372,-0.8215,0.0966
83889,0.1283,-0.7841,0.2454
83910,0.1235,-0.7667,0.3235
83933,0.1187,-0.7505,0.4032
83955,0.1088,-0.7224,0.5635
83989,0.0984,-0.6997,0.7192
84008,0.0930,-0.6899,0.7933
84028,0.0875,-0.6812,0.8639
84044,0.0819,-0.6732,0.9302
84083,0.0706,-0.6597,1.0466
84105,0.0594,-0.6498,1.1368
84123,0.0542,-0.6464,1.1703
84144,0.0494,-0.6440,1.1952
84184,0.0417,-0.6431,1.2179
84207,0.0377,-0.6464,1.2036
84227,0.0375,-0.6495,1.1829
84246,0.0386,-0.6536,1.1534
84298,0.0505,-0.6698,1.0182
84345,0.0748,-0.6929,0.8230
84361,0.0851,-0.7020,0.7474
84384,0.1079,-0.7231,0.5851
84406,0.1201,-0.7349,0.5001
84423,0.1327,-0.7473,0.4138
84446,0.1453,-0.7603,0.3275
84467,0.1702,-0.7872,0.1591
84506,0.1930,-0.8152,0.0034
84527,0.2032,-0.8291,-0.0670
84553,0.2209,-0.8558,-0.1892
84574,0.2284,-0.8683,-0.2397
84597,0.2399,-0.8904,-0.3176
84639,0.2468,-0.9080,-0.3639
84655,0.2487,-0.9147,-0.3751
84714,0.2444,-0.9259,-0.3447
84735,0.2402,-0.9240,-0.3197
84752,0.2350,-0.9198,-0.2887
84774,0.2286,-0.9137,-0.2520
84797,0.2124,-0.8953,-0.1632
84814,0.2028,-0.8835,-0.1122
84836,0.1921,-0.8704,-0.0570
84854,0.1807,-0.8563,0.0017
84893,0.1555,-0.7954,0.1953
84943,0.1003,-0.7712,0.4020
84965,0.0867,-0.7596,0.4703
84985,0.0736,-0.7493,0.5371
85004,0.0612,-0.7399,0.6016
85024,0.0494,-0.7318,0.6627
85046,0.0289,-0.7185,0.7721
85067,0.0200,-0.7134,0.8188
85099,0.0056,-0.7056,0.8937
85118,-0.0001,-0.7026,0.9210
85143,-0.0083,-0.6987,0.9550
85187,-0.0125,-0.6969,0.9619
85213,-0.0128,-0.6971,0.9448
85245,-0.0100,-0.6989,0.9086
85263,-0.0077,-0.7002,0.8850
85311,0.0022,-0.7058,0.8013
85332,0.0061,-0.7080,0.7715
85351,0.0100,-0.7102,0.7422
85373,0.0179,-0.7144,0.6868
85394,0.0217,-0.7162,0.6617
85415,0.0253,-0.7178,0.6393
85434,0.0284,-0.7190,0.6194
85458,0.0341,-0.7203,0.5885
85475,0.0364,-0.7205,0.5776
85497,0.0382,-0.7202,0.5698
85569,0.0422,-0.7152,0.5688
85587,0.0421,-0.7137,0.5742
85608,0.0416,-0.7122,0.5807
85630,0.0411,-0.7107,0.5879
85647,0.0403,-0.7091,0.5955
85671,0.0385,-0.7063,0.6108
85690,0.0375,-0.7051,0.6182
85747,0.0342,-0.7023,0.6365
85769,0.0322,-0.7013,0.6448
85787,0.0314,-0.7012,0.6476
85808,0.0306,-0.7012,0.6497
85855,0.0292,-0.7025,0.6512
85874,0.0291,-0.7031,0.6505
85895,0.0289,-0.7039,0.6492
85918,0.0292,-0.7056,0.6455
85950,0.0297,-0.7069,0.6406
85971,0.0300,-0.7075,0.6381
85998,0.0308,-0.7084,0.6329
86019,0.0310,-0.7086,0.6305
86040,0.0314,-0.7087,0.6283
86063,0.0319,-0.7084,0.6245
86081,0.0320,-0.7080,0.6230
86102,0.0322,-0.7075,0.6219
86141,0.0323,-0.7063,0.6206
86173,0.0326,-0.7047,0.6205
86189,0.0327,-0.7039,0.6208
86212,0.0328,-0.7020,0.6224
86239,0.0330,-0.7010,0.6238
86262,0.0331,-0.6990,0.6277
86287,0.0330,-0.6979,0.6306
86350,0.0321,-0.6892,0.6521
86373,0.0315,-0.6854,0.6602
86396,0.0302,-0.6754,0.6794
86418,0.0293,-0.6691,0.6902
86435,0.0286,-0.6622,0.7013
86480,0.0275,-0.6387,0.7332
86520,0.0292,-0.6230,0.7493
86542,0.0348,-0.6100,0.7585
86560,0.0399,-0.6050,0.7603
86581,0.0468,-0.6014,0.7599
86603,0.0555,-0.5992,0.7574
86620,0.0664,-0.5985,0.7532
86643,0.0940,-0.6010,0.7397
86665,0.1104,-0.6038,0.7311
86682,0.1282,-0.6073,0.7216
86699,0.1470,-0.6115,0.7113
86722,0.1865,-0.6207,0.6904
86780,0.2465,-0.6354,0.6615
86823,0.3014,-0.6487,0.6415
86840,0.3176,-0.6523,0.6377
86861,0.3323,-0.6552,0.6353
86882,0.3452,-0.6571,0.6345
86902,0.3564,-0.6580,0.6353
86924,0.3732,-0.6570,0.6407
86946,0.3785,-0.6553,0.6453
86977,0.3840,-0.6495,0.6569
86996,0.3844,-0.6458,0.6636
87020,0.3810,-0.6368,0.6779
87040,0.3776,-0.6317,0.6852
87061,0.3733,-0.6263,0.6925
87089,0.3632,-0.6147,0.7067
87122,0.3524,-0.6031,0.7197
87139,0.3470,-0.5975,0.7256
87182,0.3372,-0.5867,0.7354
87204,0.3286,-0.5760,0.7427
87222,0.3250,-0.5709,0.7457
87243,0.3218,-0.5660,0.7483
87266,0.3175,-0.5568,0.7528
87283,0.3163,-0.5524,0.7546
87305,0.3158,-0.5483,0.7563
87327,0.3158,-0.5443,0.7579
87379,0.3190,-0.5337,0.7617
87431,0.3278,-0.5225,0.7639
87453,0.3302,-0.5203,0.7640
87470,0.3325,-0.5181,0.7642
87492,0.3346,-0.5161,0.7642
87515,0.3376,-0.5122,0.7644
87533,0.3385,-0.5103,0.7648
87555,0.3390,-0.5083,0.7651
87577,0.3390,-0.5063,0.7656
87617,0.3378,-0.5007,0.7681
87638,0.3370,-0.4989,0.7694
87655,0.3362,-0.4972,0.7709
87678,0.3341,-0.4940,0.7748
87700,0.3329,-0.4926,0.7769
87733,0.3304,-0.4900,0.7811
87752,0.3292,-0.4890,0.7831
87773,0.3281,-0.4880,0.7849
87796,0.3262,-0.4867,0.7878
87840,0.3246,-0.4860,0.7898
87862,0.3234,-0.4857,0.7908
87880,0.3229,-0.4858,0.7909
87901,0.3225,-0.4861,0.7909
87923,0.3224,-0.4865,0.7905
87940,0.3223,-0.4869,0.7900
87959,0.3223,-0.4879,0.7885
87980,0.3224,-0.4883,0.7876
88019,0.3228,-0.4891,0.7859
88051,0.3235,-0.4899,0.7847
88071,0.3237,-0.4902,0.7843
88094,0.3245,-0.4905,0.7839
88116,0.3247,-0.4905,0.7838
88133,0.3251,-0.4905,0.7837
88159,0.3257,-0.4904,0.7836
88180,0.3259,-0.4902,0.7837
88212,0.3262,-0.4899,0.7839
88233,0.3263,-0.4896,0.7842
88253,0.3263,-0.4894,0.7844
88276,0.3263,-0.4888,0.7848
88298,0.3263,-0.4885,0.7850
88323,0.3260,-0.4879,0.7853
88360,0.3257,-0.4874,0.7855
88377,0.3254,-0.4872,0.7855
88426,0.3250,-0.4867,0.7855
88449,0.3248,-0.4866,0.7855
88472,0.3246,-0.4863,0.7856
88494,0.3245,-0.4863,0.7856
88511,0.3243,-0.4863,0.7856
88533,0.3243,-0.4862,0.7855
88556,0.3242,-0.4863,0.7854
88597,0.3241,-0.4863,0.7853
88619,0.3240,-0.4863,0.7852
88661,0.3240,-0.4862,0.7850
88683,0.3240,-0.4862,0.7849
88701,0.3240,-0.4863,0.7849
88722,0.3241,-0.4863,0.7849
88744,0.3241,-0.4863,0.7849
88761,0.3242,-0.4863,0.7850
88779,0.3243,-0.4863,0.7852
88801,0.3246,-0.4863,0.7853
88860,0.3251,-0.4863,0.7853
88882,0.3254,-0.4863,0.7852
88900,0.3256,-0.4863,0.7852
88921,0.3257,-0.4863,0.7853
88967,0.3259,-0.4861,0.7854
88986,0.3260,-0.4861,0.7854
89005,0.3260,-0.4861,0.7853
89025,0.3262,-0.4860,0.7852
89065,0.3262,-0.4858,0.7849
89086,0.3263,-0.4857,0.7848
89108,0.3263,-0.4857,0.7847
89131,0.3263,-0.4856,0.7848
89153,0.3263,-0.4856,0.7848
89174,0.3262,-0.4856,0.7850
89191,0.3260,-0.4856,0.7852
89213,0.3257,-0.4857,0.7859
89260,0.3245,-0.4857,0.7871
89303,0.3236,-0.4856,0.7880
89319,0.3232,-0.4855,0.7883
89342,0.3225,-0.4855,0.7889
89364,0.3223,-0.4854,0.7892
89382,0.3221,-0.4854,0.7893
89400,0.3220,-0.4854,0.7894
89421,0.3219,-0.4854,0.7894
89478,0.3223,-0.4854,0.7889
89501,0.3225,-0.4854,0.7888
89524,0.3228,-0.4852,0.7885
89546,0.3229,-0.4852,0.7882
89563,0.3230,-0.4852,0.7881
89590,0.3231,-0.4852,0.7876
89611,0.3231,-0.4852,0.7875
89649,0.3232,-0.4852,0.7871
89670,0.3232,-0.4852,0.7870
89696,0.3231,-0.4854,0.7869
89717,0.3231,-0.4854,0.7869
89740,0.3230,-0.4855,0.7869
89758,0.3229,-0.4855,0.7869
89779,0.3229,-0.4855,0.7869
89801,0.3228,-0.4856,0.7869
89856,0.3223,-0.4855,0.7871
89910,0.3219,-0.4852,0.7872
89926,0.3219,-0.4852,0.7874
89948,0.3218,-0.4851,0.7875
89974,0.3217,-0.4849,0.7878
89991,0.3217,-0.4847,0.7880
90013,0.3215,-0.4846,0.7882
90033,0.3215,-0.4845,0.7883
90065,0.3215,-0.4843,0.7887
90087,0.3215,-0.4840,0.7891
90110,0.3215,-0.4839,0.7893
90131,0.3215,-0.4838,0.7896
90154,0.3215,-0.4835,0.7899
90171,0.3215,-0.4834,0.7900
90208,0.3215,-0.4833,0.7903
90225,0.3215,-0.4832,0.7904
90271,0.3215,-0.4830,0.7906
90293,0.3215,-0.4829,0.7906
90316,0.3215,-0.4828,0.7905
90338,0.3215,-0.4828,0.7905
90360,0.3215,-0.4827,0.7905
90377,0.3215,-0.4827,0.7905
90400,0.3215,-0.4824,0.7905
90419,0.3214,-0.4824,0.7905
90474,0.3213,-0.4822,0.7904
90509,0.3212,-0.4819,0.7902
90525,0.3210,-0.4819,0.7902
90548,0.3209,-0.4817,0.7900
90570,0.3208,-0.4817,0.7899
90587,0.3208,-0.4816,0.7899
90609,0.3207,-0.4814,0.7899
90631,0.3204,-0.4813,0.7900
90670,0.3203,-0.4810,0.7903
90691,0.3202,-0.4808,0.7904
90717,0.3199,-0.4806,0.7908
90738,0.3199,-0.4803,0.7910
90761,0.3197,-0.4801,0.7915
90778,0.3197,-0.4800,0.7917
90815,0.3196,-0.4797,0.7921
90831,0.3196,-0.4796,0.7924
90875,0.3195,-0.4794,0.7928
90896,0.3195,-0.4792,0.7930
90914,0.3195,-0.4791,0.7931
90935,0.3195,-0.4790,0.7932
90958,0.3195,-0.4789,0.7933
90976,0.3195,-0.4789,0.7935
90995,0.3195,-0.4788,0.7935
91015,0.3195,-0.4786,0.7935
91057,0.3195,-0.4784,0.7936
91078,0.3195,-0.4784,0.7936
91120,0.3195,-0.4783,0.7936
91141,0.3195,-0.4780,0.7937
91158,0.3196,-0.4780,0.7937
91180,0.3196,-0.4780,0.7938
91202,0.3196,-0.4779,0.7939
91219,0.3196,-0.4779,0.7941
91237,0.3197,-0.4778,0.7943
91259,0.3197,-0.4778,0.7944
91306,0.3198,-0.4775,0.7948
91327,0.3197,-0.4775,0.7949
91347,0.3197,-0.4774,0.7950
91369,0.3196,-0.4773,0.7952
91391,0.3195,-0.4772,0.7952
91428,0.3193,-0.4769,0.7953
91479,0.3192,-0.4766,0.7953
91504,0.3191,-0.4763,0.7952
91525,0.3191,-0.4762,0.7950
91547,0.3191,-0.4761,0.7950
91564,0.3190,-0.4760,0.7949
91587,0.3190,-0.4757,0.7950
91609,0.3188,-0.4756,0.7952
91631,0.3188,-0.4755,0.7953
91649,0.3187,-0.4752,0.7955
91671,0.3187,-0.4752,0.7957
91710,0.3186,-0.4750,0.7959
91743,0.3184,-0.4749,0.7961
91759,0.3184,-0.4749,0.7963
91782,0.3182,-0.4747,0.7964
91804,0.3182,-0.4747,0.7965
91821,0.3182,-0.4747,0.7966
91846,0.3181,-0.4747,0.7966
91868,0.3181,-0.4747,0.7968
91912,0.3180,-0.4747,0.7969
91934,0.3180,-0.4747,0.7969
91952,0.3180,-0.4746,0.7969
91975,0.3179,-0.4746,0.7968
91994,0.3179,-0.4746,0.7968
92047,0.3176,-0.4745,0.7965
92063,0.3175,-0.4744,0.7964
92096,0.3174,-0.4742,0.7960
92117,0.3173,-0.4741,0.7959
92140,0.3171,-0.4740,0.7959
92161,0.3169,-0.4735,0.7960
92183,0.3168,-0.4731,0.7961
92207,0.3167,-0.4728,0.7965
92230,0.3164,-0.4719,0.7975
92252,0.3163,-0.4716,0.7982
92309,0.3158,-0.4694,0.8013
92362,0.3157,-0.4680,0.8032
92383,0.3156,-0.4675,0.8037
92400,0.3156,-0.4672,0.8041
92423,0.3154,-0.4666,0.8046
92445,0.3154,-0.4663,0.8048
92466,0.3154,-0.4661,0.8049
92487,0.3156,-0.4659,0.8051
92510,0.3157,-0.4657,0.8049
92558,0.3159,-0.4657,0.8043
92581,0.3159,-0.4658,0.8041
92602,0.3160,-0.4658,0.8038
92649,0.3162,-0.4661,0.8031
92669,0.3162,-0.4662,0.8029
92691,0.3159,-0.4664,0.8025
92713,0.3158,-0.4666,0.8024
92745,0.3154,-0.4667,0.8021
92766,0.3153,-0.4668,0.8020
92792,0.3149,-0.4668,0.8021
92813,0.3147,-0.4668,0.8022
92836,0.3145,-0.4668,0.8025
92854,0.3143,-0.4667,0.8026
92871,0.3142,-0.4667,0.8027
92892,0.3141,-0.4666,0.8030
92951,0.3138,-0.4661,0.8035
92997,0.3137,-0.4657,0.8037
93013,0.3137,-0.4656,0.8040
93035,0.3136,-0.4651,0.8042
93054,0.3135,-0.4650,0.8043
93095,0.3134,-0.4645,0.8046
93117,0.3132,-0.4641,0.8049
93135,0.3131,-0.4639,0.8051
93156,0.3130,-0.4636,0.8053
93177,0.3130,-0.4634,0.8055
93203,0.3129,-0.4629,0.8062
93224,0.3129,-0.4626,0.8065
93247,0.3130,-0.4620,0.8073
93283,0.3131,-0.4614,0.8081
93299,0.3131,-0.4612,0.8085
93321,0.3132,-0.4609,0.8088
93356,0.3135,-0.4604,0.8094
93377,0.3135,-0.4602,0.8096
93396,0.3137,-0.4597,0.8098
93417,0.3137,-0.4595,0.8099
93439,0.3137,-0.4592,0.8101
93456,0.3138,-0.4589,0.8101
93479,0.3138,-0.4583,0.8102
93498,0.3138,-0.4580,0.8103
93561,0.3137,-0.4567,0.8104
93593,0.3136,-0.4561,0.8104
93610,0.3135,-0.4558,0.8104
93632,0.3134,-0.4556,0.8104
93654,0.3132,-0.4553,0.8103
93678,0.3131,-0.4551,0.8103
93703,0.3130,-0.4550,0.8102
93746,0.3127,-0.4546,0.8103
93767,0.3126,-0.4546,0.8103
93793,0.3125,-0.4545,0.8104
93814,0.3125,-0.4543,0.8104
93836,0.3125,-0.4543,0.8105
93853,0.3125,-0.4543,0.8107
93904,0.3126,-0.4542,0.8110
93954,0.3129,-0.4542,0.8112
93978,0.3130,-0.4542,0.8110
94000,0.3131,-0.4541,0.8110
94023,0.3132,-0.4540,0.8112
94042,0.3132,-0.4540,0.8112
94059,0.3134,-0.4539,0.8113
94081,0.3134,-0.4539,0.8114
94104,0.3135,-0.4536,0.8116
94136,0.3135,-0.4536,0.8116
94158,0.3136,-0.4535,0.8119
94204,0.3137,-0.4535,0.8121
94225,0.3138,-0.4536,0.8123
94243,0.3140,-0.4537,0.8125
94264,0.3141,-0.4539,0.8127
94287,0.3145,-0.4542,0.8134
94305,0.3146,-0.4545,0.8136
94324,0.3147,-0.4546,0.8138
94340,0.3148,-0.4548,0.8140
94362,0.3148,-0.4550,0.8140
94397,0.3151,-0.4554,0.8134
94419,0.3152,-0.4562,0.8121
94437,0.3153,-0.4565,0.8114
94458,0.3156,-0.4570,0.8105
94506,0.3159,-0.4589,0.8076
94522,0.3160,-0.4596,0.8066
94541,0.3162,-0.4604,0.8057
94562,0.3163,-0.4612,0.8047
94616,0.3173,-0.4646,0.8010
94637,0.3176,-0.4653,0.8002
94654,0.3179,-0.4661,0.7994
94676,0.3182,-0.4668,0.7987
94698,0.3191,-0.4679,0.7976
94715,0.3195,-0.4684,0.7971
94736,0.3198,-0.4688,0.7969
94753,0.3202,-0.4690,0.7966
94797,0.3212,-0.4692,0.7965
94834,0.3218,-0.4691,0.7968
94850,0.3220,-0.4689,0.7970
94872,0.3223,-0.4686,0.7972
94895,0.3226,-0.4681,0.7977
94913,0.3228,-0.4678,0.7981
94934,0.3229,-0.4674,0.7985
94952,0.3230,-0.4672,0.7987
95000,0.3230,-0.4662,0.7998
95019,0.3230,-0.4658,0.8002
95041,0.3229,-0.4657,0.8004
95062,0.3228,-0.4652,0.8010
95083,0.3226,-0.4651,0.8013
95133,0.3224,-0.4650,0.8015
95157,0.3223,-0.4650,0.8015
95187,0.3220,-0.4651,0.8013
95208,0.3217,-0.4651,0.8010
95233,0.3214,-0.4651,0.8009
95254,0.3212,-0.4651,0.8008
95277,0.3207,-0.4647,0.8005
95294,0.3204,-0.4646,0.8005
95316,0.3202,-0.4642,0.8007
95338,0.3198,-0.4637,0.8008
95356,0.3192,-0.4626,0.8014
95373,0.3188,-0.4620,0.8018
95395,0.3185,-0.4613,0.8022
95436,0.3179,-0.4597,0.8035
95467,0.3171,-0.4579,0.8049
95489,0.3167,-0.4562,0.8066
95507,0.3163,-0.4553,0.8076
95528,0.3160,-0.4545,0.8086
95550,0.3158,-0.4537,0.8096
95607,0.3151,-0.4514,0.8121
95630,0.3149,-0.4510,0.8125
95653,0.3147,-0.4507,0.8127
95675,0.3147,-0.4504,0.8127
95692,0.3146,-0.4503,0.8129
95744,0.3142,-0.4500,0.8132
95760,0.3140,-0.4498,0.8135
95777,0.3138,-0.4498,0.8138
95799,0.3137,-0.4497,0.8142
95843,0.3135,-0.4498,0.8156
95864,0.3134,-0.4498,0.8160
95890,0.3131,-0.4503,0.8169
95911,0.3129,-0.4507,0.8174
95934,0.3126,-0.4515,0.8177
95952,0.3124,-0.4520,0.8177
95976,0.3123,-0.4526,0.8175
95996,0.3120,-0.4534,0.8170
96075,0.3116,-0.4578,0.8129
96091,0.3118,-0.4586,0.8116
96114,0.3121,-0.4606,0.8088
96136,0.3124,-0.4614,0.8075
96153,0.3126,-0.4623,0.8060
96178,0.3129,-0.4630,0.8048
96199,0.3132,-0.4644,0.8026
96228,0.3135,-0.4648,0.8018
96250,0.3136,-0.4656,0.8007
96274,0.3136,-0.4657,0.8003
96297,0.3134,-0.4659,0.8002
96360,0.3123,-0.4656,0.8007
96386,0.3113,-0.4648,0.8013
96407,0.3107,-0.4642,0.8018
96451,0.3091,-0.4617,0.8044
96472,0.3085,-0.4604,0.8058
96501,0.3075,-0.4575,0.8090
96522,0.3070,-0.4559,0.8105
96545,0.3062,-0.4528,0.8140
96563,0.3058,-0.4513,0.8154
96587,0.3054,-0.4497,0.8170
96609,0.3048,-0.4470,0.8196
96687,0.3038,-0.4431,0.8232
96703,0.3036,-0.4425,0.8239
96726,0.3032,-0.4419,0.8245
96748,0.3030,-0.4418,0.8247
96770,0.3029,-0.4417,0.8250
96788,0.3026,-0.4418,0.8250
96810,0.3021,-0.4423,0.8248
96839,0.3018,-0.4431,0.8242
96861,0.3015,-0.4437,0.8237
96886,0.3013,-0.4443,0.8232
96908,0.3009,-0.4456,0.8221
96956,0.3005,-0.4473,0.8206
96972,0.3004,-0.4478,0.8201
96990,0.3003,-0.4482,0.8196
97009,0.3000,-0.4487,0.8192
97056,0.2996,-0.4496,0.8185
97076,0.2993,-0.4497,0.8184
97093,0.2992,-0.4498,0.8182
97115,0.2991,-0.4498,0.8182
97138,0.2988,-0.4498,0.8182
97156,0.2988,-0.4497,0.8184
97177,0.2987,-0.4496,0.8185
97195,0.2987,-0.4493,0.8186
97231,0.2986,-0.4489,0.8190
97266,0.2985,-0.4484,0.8195
97284,0.2982,-0.4478,0.8201
97306,0.2981,-0.4475,0.8204
97328,0.2979,-0.4473,0.8208
97345,0.2977,-0.4470,0.8213
97368,0.2972,-0.4465,0.8220
97390,0.2970,-0.4463,0.8223
97433,0.2965,-0.4459,0.8231
97454,0.2964,-0.4458,0.8232
97471,0.2961,-0.4457,0.8235
97493,0.2960,-0.4457,0.8236
97516,0.2958,-0.4456,0.8239
97533,0.2957,-0.4456,0.8239
97567,0.2955,-0.4457,0.8239
97593,0.2954,-0.4458,0.8237
97610,0.2954,-0.4459,0.8236
97633,0.2954,-0.4462,0.8231
97694,0.2954,-0.4467,0.8223
97719,0.2955,-0.4470,0.8215
97739,0.2957,-0.4471,0.8212
97762,0.2959,-0.4475,0.8206
97786,0.2960,-0.4476,0.8203
97810,0.2961,-0.4479,0.8201
97832,0.2964,-0.4480,0.8198
97896,0.2969,-0.4484,0.8197
97913,0.2970,-0.4485,0.8197
97934,0.2971,-0.4485,0.8197
97956,0.2971,-0.4486,0.8197
97974,0.2972,-0.4486,0.8197
97996,0.2974,-0.4487,0.8198
98018,0.2974,-0.4487,0.8198
98067,0.2975,-0.4489,0.8198
98088,0.2975,-0.4489,0.8198
98105,0.2975,-0.4490,0.8198
98128,0.2974,-0.4490,0.8199
98176,0.2972,-0.4491,0.8201
98192,0.2972,-0.4491,0.8201
98217,0.2972,-0.4491,0.8202
98237,0.2971,-0.4491,0.8202
98265,0.2971,-0.4490,0.8204
98286,0.2971,-0.4490,0.8206
98312,0.2971,-0.4489,0.8207
98333,0.2971,-0.4489,0.8207
98356,0.2972,-0.4489,0.8206
98376,0.2972,-0.4489,0.8206
98398,0.2974,-0.4489,0.8204
98424,0.2975,-0.4489,0.8201
98467,0.2976,-0.4490,0.8197
98510,0.2979,-0.4491,0.8195
98526,0.2979,-0.4491,0.8193
98548,0.2980,-0.4491,0.8193
98571,0.2980,-0.4491,0.8192
98589,0.2981,-0.4491,0.8192
98610,0.2981,-0.4492,0.8192
98629,0.2982,-0.4492,0.8192
98685,0.2983,-0.4492,0.8195
98709,0.2983,-0.4492,0.8196
98730,0.2983,-0.4493,0.8195
98753,0.2985,-0.4493,0.8195
98771,0.2986,-0.4495,0.8193
98807,0.2986,-0.4496,0.8192
98831,0.2987,-0.4497,0.8192
98860,0.2987,-0.4498,0.8190
98882,0.2988,-0.4500,0.8188
98907,0.2988,-0.4501,0.8187
98928,0.2988,-0.4502,0.8186
98951,0.2990,-0.4503,0.8184
98969,0.2990,-0.4503,0.8184
98989,0.2990,-0.4503,0.8184
99008,0.2990,-0.4503,0.8184
99065,0.2990,-0.4503,0.8182
99105,0.2990,-0.4502,0.8182
99121,0.2990,-0.4502,0.8182
99143,0.2990,-0.4501,0.8182
99166,0.2990,-0.4500,0.8184
99183,0.2990,-0.4500,0.8185
99205,0.2988,-0.4500,0.8186
99228,0.2988,-0.4498,0.8188
99259,0.2988,-0.4498,0.8190
99281,0.2987,-0.4497,0.8191
99303,0.2987,-0.4497,0.8192
99323,0.2987,-0.4497,0.8192
99346,0.2986,-0.4498,0.8192
99370,0.2986,-0.4498,0.8192
99412,0.2986,-0.4498,0.8192
99435,0.2985,-0.4498,0.8192
99452,0.2985,-0.4498,0.8191
99475,0.2985,-0.4498,0.8191
99518,0.2983,-0.4497,0.8190
99539,0.2983,-0.4497,0.8190
99565,0.2982,-0.4496,0.8190
99586,0.2982,-0.4495,0.8190
99609,0.2982,-0.4492,0.8191
99626,0.2982,-0.4492,0.8190
99651,0.2982,-0.4491,0.8190
99673,0.2983,-0.4490,0.8188
99754,0.2985,-0.4487,0.8187
99774,0.2985,-0.4487,0.8186
99794,0.2985,-0.4486,0.8186
99813,0.2985,-0.4486,0.8186
99837,0.2985,-0.4487,0.8186
99855,0.2985,-0.4487,0.8187
99876,0.2985,-0.4487,0.8187
99906,0.2983,-0.4489,0.8188
99927,0.2983,-0.4489,0.8190
99953,0.2982,-0.4490,0.8192
99972,0.2982,-0.4490,0.8195
100016,0.2982,-0.4491,0.8197
100032,0.2982,-0.4491,0.8198
100058,0.2982,-0.4491,0.8199
100079,0.2982,-0.4492,0.8201
100121,0.2982,-0.4492,0.8202
100142,0.2982,-0.4492,0.8202
100159,0.2982,-0.4493,0.8201
100181,0.2982,-0.4493,0.8201
100204,0.2982,-0.4493,0.8201
100221,0.2982,-0.4493,0.8201
100243,0.2982,-0.4493,0.8202
100261,0.2982,-0.4493,0.8202
100297,0.2981,-0.4492,0.8202
100336,0.2981,-0.4491,0.8203
100352,0.2981,-0.4491,0.8203
100387,0.2980,-0.4490,0.8203
100418,0.2980,-0.4489,0.8202
100439,0.2980,-0.4487,0.8202
100465,0.2980,-0.4487,0.8201
100494,0.2980,-0.4487,0.8201
100516,0.2980,-0.4486,0.8199
100540,0.2980,-0.4486,0.8199
100563,0.2980,-0.4485,0.8199
100585,0.2979,-0.4485,0.8198
100635,0.2979,-0.4482,0.8197
100656,0.2977,-0.4482,0.8197
100705,0.2976,-0.4481,0.8197
100730,0.2975,-0.4480,0.8197
100751,0.2975,-0.4480,0.8197
100773,0.2974,-0.4479,0.8197
100790,0.2972,-0.4478,0.8198
100814,0.2971,-0.4476,0.8199
100833,0.2971,-0.4475,0.8202
100861,0.2970,-0.4474,0.8204
100877,0.2969,-0.4473,0.8206
100899,0.2969,-0.4471,0.8207
100942,0.2968,-0.4470,0.8209
100971,0.2968,-0.4469,0.8209
100991,0.2968,-0.4468,0.8208
101014,0.2968,-0.4468,0.8208
101033,0.2968,-0.4468,0.8208
101054,0.2968,-0.4467,0.8207
101072,0.2968,-0.4467,0.8207
101113,0.2966,-0.4465,0.8210
101134,0.2965,-0.4465,0.8212
101151,0.2964,-0.4464,0.8214
101174,0.2960,-0.4464,0.8220
101196,0.2958,-0.4463,0.8224
101213,0.2955,-0.4463,0.8228
101247,0.2950,-0.4462,0.8235
101272,0.2946,-0.4462,0.8240
101288,0.2944,-0.4460,0.8242
101310,0.2943,-0.4460,0.8243
101353,0.2943,-0.4459,0.8243
101375,0.2944,-0.4458,0.8243
101399,0.2947,-0.4458,0.8241
101422,0.2950,-0.4457,0.8236
101444,0.2953,-0.4457,0.8234
101461,0.2954,-0.4457,0.8230
101487,0.2958,-0.4456,0.8224
101508,0.2960,-0.4456,0.8221
101572,0.2963,-0.4453,0.8213
101589,0.2964,-0.4453,0.8212
101610,0.2964,-0.4452,0.8212
101633,0.2964,-0.4451,0.8213
101651,0.2963,-0.4451,0.8214
101672,0.2963,-0.4449,0.8217
101690,0.2961,-0.4449,0.8218
101750,0.2960,-0.4447,0.8225
101771,0.2959,-0.4447,0.8228
101788,0.2959,-0.4447,0.8229
101810,0.2959,-0.4446,0.8230
101850,0.2960,-0.4446,0.8234
101868,0.2960,-0.4445,0.8235
101892,0.2960,-0.4445,0.8235
101914,0.2961,-0.4445,0.8234
101946,0.2963,-0.4446,0.8232
101969,0.2963,-0.4446,0.8232
101991,0.2963,-0.4446,0.8231
102013,0.2963,-0.4446,0.8230
102032,0.2963,-0.4446,0.8229
102049,0.2963,-0.4447,0.8229
102071,0.2963,-0.4447,0.8228
102097,0.2963,-0.4446,0.8226
102144,0.2960,-0.4445,0.8229
102177,0.2959,-0.4441,0.8234
102193,0.2958,-0.4440,0.8236
102215,0.2957,-0.4438,0.8239
102237,0.2955,-0.4436,0.8242
102254,0.2955,-0.4434,0.8245
102277,0.2953,-0.4430,0.8250
102302,0.2952,-0.4429,0.8251
102331,0.2949,-0.4424,0.8256
102352,0.2948,-0.4421,0.8257
102376,0.2947,-0.4418,0.8260
102402,0.2946,-0.4415,0.8262
102417,0.2944,-0.4414,0.8262
102448,0.2943,-0.4410,0.8263
102484,0.2941,-0.4407,0.8264
102541,0.2939,-0.4404,0.8263
102562,0.2938,-0.4404,0.8263
102579,0.2938,-0.4403,0.8263
102601,0.2938,-0.4403,0.8263
102624,0.2937,-0.4403,0.8263
102642,0.2937,-0.4403,0.8263
102663,0.2936,-0.4403,0.8263
102685,0.2936,-0.4403,0.8263
102703,0.2935,-0.4402,0.8264
102721,0.2933,-0.4402,0.8264
102743,0.2932,-0.4401,0.8265
102821,0.2926,-0.4396,0.8269
102838,0.2925,-0.4395,0.8269
102859,0.2924,-0.4393,0.8270
102880,0.2922,-0.4392,0.8271
102897,0.2921,-0.4390,0.8273
102915,0.2920,-0.4388,0.8274
102937,0.2917,-0.4384,0.8278
102972,0.2915,-0.4380,0.8281
102992,0.2914,-0.4377,0.8284
103012,0.2914,-0.4376,0.8286
103031,0.2913,-0.4374,0.8287
103053,0.2911,-0.4370,0.8291
103089,0.2910,-0.4368,0.8293
103105,0.2910,-0.4366,0.8293
103123,0.2910,-0.4366,0.8293
103144,0.2910,-0.4365,0.8293
103194,0.2909,-0.4363,0.8296
103216,0.2908,-0.4362,0.8298
103234,0.2908,-0.4360,0.8301
103255,0.2908,-0.4359,0.8303
103277,0.2906,-0.4358,0.8306
103294,0.2905,-0.4357,0.8308
103317,0.2904,-0.4353,0.8315
103334,0.2904,-0.4351,0.8318
103369,0.2906,-0.4347,0.8325
103415,0.2921,-0.4338,0.8345
103432,0.2933,-0.4335,0.8357
103453,0.2950,-0.4329,0.8372
103475,0.2972,-0.4321,0.8391
103492,0.3003,-0.4309,0.8413
103515,0.3082,-0.4272,0.8467
103533,0.3131,-0.4247,0.8499
103568,0.3235,-0.4183,0.8569
103589,0.3281,-0.4150,0.8606
103615,0.3346,-0.4086,0.8674
103636,0.3357,-0.4059,0.8702
103659,0.3324,-0.4022,0.8735
103677,0.3280,-0.4015,0.8738
103710,0.3136,-0.4023,0.8711
103734,0.3041,-0.4039,0.8682
103780,0.2695,-0.4131,0.8549
103803,0.2571,-0.4174,0.8490
103826,0.2330,-0.4275,0.8357
103848,0.2222,-0.4331,0.8281
103865,0.2125,-0.4388,0.8202
103887,0.2043,-0.4446,0.8120
103909,0.1938,-0.4550,0.7954
103926,0.1918,-0.4594,0.7876
103943,0.1920,-0.4629,0.7805
103965,0.1943,-0.4655,0.7745
104035,0.2197,-0.4641,0.7638
104062,0.2380,-0.4558,0.7676
104083,0.2477,-0.4500,0.7717
104106,0.2668,-0.4354,0.7844
104124,0.2759,-0.4269,0.7927
104141,0.2843,-0.4175,0.8021
104162,0.2917,-0.4075,0.8123
104212,0.3080,-0.3738,0.8446
104228,0.3110,-0.3617,0.8553
104250,0.3130,-0.3492,0.8658
104273,0.3135,-0.3251,0.8856
104319,0.3087,-0.2949,0.9102
104343,0.3068,-0.2881,0.9164
104372,0.3041,-0.2805,0.9248
104393,0.3036,-0.2799,0.9268
104419,0.3044,-0.2842,0.9266
104441,0.3057,-0.2886,0.9248
104463,0.3074,-0.2941,0.9219
104489,0.3115,-0.3071,0.9138
104510,0.3137,-0.3141,0.9091
104533,0.3182,-0.3281,0.8987
104571,0.3219,-0.3407,0.8884
104618,0.3251,-0.3540,0.8754
104634,0.3252,-0.3566,0.8719
104656,0.3250,-0.3583,0.8693
104678,0.3243,-0.3591,0.8672
104696,0.3219,-0.3584,0.8649
104718,0.3203,-0.3571,0.8645
104740,0.3185,-0.3551,0.8647
104761,0.3165,-0.3527,0.8654
104783,0.3123,-0.3469,0.8678
104805,0.3102,-0.3438,0.8694
104851,0.3042,-0.3340,0.8754
104872,0.3024,-0.3311,0.8774
104889,0.3008,-0.3281,0.8796
104928,0.2971,-0.3210,0.8855
104945,0.2963,-0.3192,0.8872
104962,0.2955,-0.3176,0.8888
104983,0.2950,-0.3164,0.8901
105003,0.2947,-0.3153,0.8916
105031,0.2941,-0.3135,0.8942
105051,0.2939,-0.3129,0.8953
105077,0.2937,-0.3121,0.8971
105098,0.2937,-0.3121,0.8977
105120,0.2939,-0.3124,0.8981
105137,0.2943,-0.3129,0.8982
105163,0.2953,-0.3143,0.8978
