timestamp,acc_x,acc_y,acc_z
1037383,0.0126,-0.9889,0.0259
1037487,0.0125,-0.9888,0.0262
1037497,0.0125,-0.9888,0.0262
1037513,0.0126,-0.9888,0.0261
1037529,0.0126,-0.9886,0.0260
1037545,0.0126,-0.9886,0.0259
1037563,0.0127,-0.9885,0.0259
1037579,0.0128,-0.9885,0.0260
1037597,0.0128,-0.9886,0.0261
1037613,0.0128,-0.9886,0.0262
1037648,0.0127,-0.9889,0.0265
1037664,0.0126,-0.9890,0.0267
1037680,0.0125,-0.9890,0.0270
1037721,0.0121,-0.9890,0.0269
1037737,0.0121,-0.9889,0.0266
1037753,0.0120,-0.9889,0.0262
1037763,0.0120,-0.9888,0.0260
1037779,0.0118,-0.9888,0.0256
1037790,0.0118,-0.9888,0.0254
1037800,0.0118,-0.9888,0.0254
1037816,0.0120,-0.9888,0.0253
1037844,0.0122,-0.9890,0.0254
1037860,0.0123,-0.9891,0.0256
1037876,0.0126,-0.9893,0.0259
1037892,0.0128,-0.9893,0.0261
1037902,0.0128,-0.9893,0.0261
1037918,0.0129,-0.9893,0.0262
1037934,0.0131,-0.9891,0.0261
1037949,0.0131,-0.9890,0.0260
1037967,0.0131,-0.9888,0.0260
1037983,0.0131,-0.9886,0.0259
1038027,0.0129,-0.9883,0.0255
1038055,0.0128,-0.9884,0.0255
1038071,0.0127,-0.9885,0.0256
1038087,0.0127,-0.9886,0.0258
1038105,0.0127,-0.9888,0.0258
1038121,0.0127,-0.9889,0.0259
1038132,0.0127,-0.9889,0.0260
1038148,0.0127,-0.9889,0.0262
1038166,0.0126,-0.9890,0.0264
1038182,0.0126,-0.9889,0.0264
1038208,0.0125,-0.9889,0.0261
1038219,0.0123,-0.9888,0.0259
1038249,0.0123,-0.9885,0.0255
1038265,0.0123,-0.9884,0.0253
1038281,0.0123,-0.9884,0.0250
1038291,0.0123,-0.9885,0.0250
1038339,0.0123,-0.9889,0.0253
1038357,0.0125,-0.9889,0.0255
1038372,0.0125,-0.9889,0.0256
1038387,0.0126,-0.9889,0.0259
1038402,0.0126,-0.9890,0.0262
1038457,0.0125,-0.9890,0.0266
1038473,0.0125,-0.9890,0.0265
1038486,0.0125,-0.9890,0.0265
1038502,0.0125,-0.9890,0.0264
1038518,0.0125,-0.9890,0.0262
1038534,0.0125,-0.9889,0.0261
1038544,0.0125,-0.9889,0.0261
1038560,0.0125,-0.9888,0.0260
1038576,0.0125,-0.9888,0.0260
1038592,0.0126,-0.9886,0.0259
1038633,0.0126,-0.9885,0.0259
1038644,0.0127,-0.9884,0.0259
1038659,0.0127,-0.9883,0.0260
1038707,0.0126,-0.9883,0.0266
1038723,0.0126,-0.9884,0.0270
1038741,0.0126,-0.9885,0.0273
1038757,0.0125,-0.9886,0.0277
1038768,0.0123,-0.9889,0.0280
1038784,0.0121,-0.9890,0.0278
1038802,0.0118,-0.9893,0.0275
1038818,0.0115,-0.9894,0.0269
1038834,0.0111,-0.9896,0.0262
1038844,0.0110,-0.9897,0.0260
1038860,0.0109,-0.9899,0.0258
1038888,0.0109,-0.9901,0.0259
1038901,0.0110,-0.9902,0.0260
1038927,0.0112,-0.9902,0.0265
1038937,0.0112,-0.9902,0.0266
1038952,0.0114,-0.9901,0.0266
1038967,0.0112,-0.9899,0.0262
1038984,0.0112,-0.9894,0.0256
1039000,0.0111,-0.9888,0.0249
1039017,0.0111,-0.9883,0.0244
1039033,0.0111,-0.9879,0.0242
1039044,0.0112,-0.9877,0.0240
1039054,0.0114,-0.9874,0.0239
1039082,0.0118,-0.9875,0.0240
1039098,0.0122,-0.9877,0.0239
1039114,0.0127,-0.9878,0.0236
1039132,0.0131,-0.9878,0.0229
1039148,0.0133,-0.9875,0.0217
1039164,0.0135,-0.9866,0.0201
1039180,0.0135,-0.9850,0.0183
1039198,0.0134,-0.9835,0.0170
1039246,0.0123,-0.9843,0.0190
1039256,0.0122,-0.9852,0.0204
1039284,0.0116,-0.9900,0.0281
1039299,0.0115,-0.9911,0.0302
1039315,0.0115,-0.9928,0.0342
1039333,0.0116,-0.9941,0.0393
1039348,0.0117,-0.9941,0.0406
1039359,0.0118,-0.9939,0.0428
1039375,0.0120,-0.9930,0.0442
1039391,0.0121,-0.9919,0.0448
1039406,0.0122,-0.9913,0.0448
1039421,0.0122,-0.9900,0.0447
1039437,0.0123,-0.9886,0.0439
1039453,0.0125,-0.9875,0.0431
1039500,0.0125,-0.9860,0.0400
1039539,0.0125,-0.9862,0.0386
1039549,0.0125,-0.9865,0.0385
1039565,0.0125,-0.9868,0.0383
1039581,0.0125,-0.9872,0.0385
1039597,0.0125,-0.9877,0.0387
1039617,0.0123,-0.9880,0.0391
1039633,0.0123,-0.9883,0.0394
1039649,0.0122,-0.9885,0.0398
1039660,0.0122,-0.9885,0.0402
1039671,0.0121,-0.9886,0.0404
1039711,0.0121,-0.9886,0.0410
1039727,0.0122,-0.9885,0.0411
1039745,0.0122,-0.9884,0.0411
1039761,0.0122,-0.9884,0.0411
1039777,0.0123,-0.9883,0.0410
1039793,0.0123,-0.9882,0.0410
1039811,0.0125,-0.9880,0.0409
1039842,0.0126,-0.9880,0.0406
1039858,0.0126,-0.9880,0.0405
1039896,0.0126,-0.9880,0.0405
1039909,0.0125,-0.9880,0.0404
1039925,0.0125,-0.9880,0.0404
1039941,0.0123,-0.9880,0.0405
1039957,0.0123,-0.9882,0.0406
1039970,0.0123,-0.9882,0.0406
1039986,0.0123,-0.9882,0.0408
1040003,0.0122,-0.9880,0.0409
1040018,0.0122,-0.9880,0.0409
1040035,0.0121,-0.9880,0.0410
1040047,0.0121,-0.9879,0.0411
1040065,0.0120,-0.9879,0.0411
1040083,0.0120,-0.9878,0.0413
1040099,0.0120,-0.9878,0.0413
1040115,0.0120,-0.9878,0.0414
1040149,0.0120,-0.9878,0.0415
1040177,0.0120,-0.9879,0.0416
1040193,0.0121,-0.9879,0.0416
1040219,0.0121,-0.9879,0.0417
1040232,0.0122,-0.9880,0.0417
1040248,0.0122,-0.9880,0.0417
1040264,0.0122,-0.9880,0.0417
1040280,0.0122,-0.9880,0.0417
1040310,0.0122,-0.9880,0.0417
1040326,0.0122,-0.9880,0.0417
1040342,0.0122,-0.9879,0.0417
1040352,0.0122,-0.9879,0.0417
1040363,0.0122,-0.9879,0.0417
1040379,0.0122,-0.9879,0.0417
1040395,0.0122,-0.9879,0.0417
1040413,0.0122,-0.9880,0.0417
1040426,0.0122,-0.9880,0.0417
1040457,0.0122,-0.9882,0.0419
1040476,0.0122,-0.9882,0.0419
1040495,0.0122,-0.9882,0.0420
1040511,0.0123,-0.9882,0.0420
1040527,0.0123,-0.9882,0.0421
1040572,0.0125,-0.9880,0.0422
1040588,0.0125,-0.9880,0.0422
1040598,0.0125,-0.9880,0.0422
1040614,0.0126,-0.9880,0.0422
1040630,0.0126,-0.9880,0.0422
1040646,0.0126,-0.9880,0.0422
1040667,0.0126,-0.9880,0.0422
1040678,0.0126,-0.9879,0.0422
1040695,0.0126,-0.9879,0.0422
1040711,0.0126,-0.9879,0.0422
1040759,0.0125,-0.9879,0.0422
1040790,0.0125,-0.9878,0.0422
1040800,0.0125,-0.9878,0.0422
1040816,0.0125,-0.9878,0.0422
1040832,0.0123,-0.9878,0.0422
1040848,0.0123,-0.9878,0.0421
1040866,0.0123,-0.9878,0.0421
1040882,0.0122,-0.9878,0.0421
1040900,0.0121,-0.9878,0.0420
1040916,0.0121,-0.9877,0.0420
1040930,0.0121,-0.9877,0.0420
1040958,0.0120,-0.9878,0.0420
1040971,0.0120,-0.9878,0.0421
1040987,0.0120,-0.9878,0.0421
1041004,0.0120,-0.9878,0.0422
1041021,0.0120,-0.9878,0.0424
1041035,0.0120,-0.9878,0.0425
1041052,0.0121,-0.9878,0.0426
1041096,0.0121,-0.9879,0.0428
1041106,0.0121,-0.9879,0.0428
1041122,0.0122,-0.9880,0.0428
1041150,0.0122,-0.9880,0.0428
1041166,0.0123,-0.9882,0.0428
1041182,0.0123,-0.9882,0.0428
1041200,0.0125,-0.9883,0.0428
1041216,0.0125,-0.9883,0.0428
1041232,0.0125,-0.9883,0.0427
1041248,0.0123,-0.9883,0.0427
1041259,0.0123,-0.9884,0.0427
1041269,0.0123,-0.9884,0.0427
1041285,0.0122,-0.9883,0.0427
1041300,0.0122,-0.9883,0.0427
1041310,0.0121,-0.9883,0.0427
1041326,0.0121,-0.9883,0.0427
1041354,0.0120,-0.9883,0.0427
1041393,0.0118,-0.9883,0.0426
1041403,0.0120,-0.9883,0.0427
1041419,0.0120,-0.9882,0.0427
1041432,0.0120,-0.9882,0.0427
1041448,0.0120,-0.9882,0.0427
1041466,0.0121,-0.9880,0.0427
1041479,0.0121,-0.9880,0.0428
1041496,0.0121,-0.9880,0.0428
1041515,0.0121,-0.9879,0.0430
1041578,0.0121,-0.9880,0.0431
1041596,0.0121,-0.9882,0.0431
1041612,0.0121,-0.9882,0.0431
1041623,0.0121,-0.9883,0.0430
1041639,0.0121,-0.9883,0.0430
1041657,0.0121,-0.9883,0.0428
1041699,0.0121,-0.9883,0.0427
1041717,0.0121,-0.9883,0.0426
1041760,0.0121,-0.9882,0.0427
1041776,0.0121,-0.9880,0.0427
1041794,0.0121,-0.9880,0.0428
1041810,0.0122,-0.9879,0.0430
1041825,0.0122,-0.9879,0.0430
1041841,0.0122,-0.9879,0.0430
1041859,0.0123,-0.9879,0.0430
1041875,0.0123,-0.9879,0.0428
1041891,0.0123,-0.9879,0.0428
1041907,0.0125,-0.9879,0.0428
1041945,0.0125,-0.9879,0.0427
1041958,0.0125,-0.9879,0.0427
1041995,0.0123,-0.9879,0.0427
1042005,0.0123,-0.9879,0.0428
1042021,0.0123,-0.9879,0.0428
1042037,0.0122,-0.9879,0.0430
1042053,0.0122,-0.9879,0.0430
1042071,0.0122,-0.9880,0.0431
1042087,0.0122,-0.9880,0.0432
1042103,0.0122,-0.9880,0.0433
1042119,0.0122,-0.9882,0.0435
1042129,0.0122,-0.9882,0.0435
1042157,0.0123,-0.9882,0.0435
1042173,0.0123,-0.9882,0.0435
1042189,0.0123,-0.9882,0.0435
1042207,0.0123,-0.9882,0.0433
1042233,0.0123,-0.9882,0.0432
1042242,0.0123,-0.9880,0.0432
1042258,0.0122,-0.9880,0.0431
1042274,0.0122,-0.9880,0.0430
1042306,0.0122,-0.9879,0.0431
1042322,0.0122,-0.9879,0.0431
1042352,0.0122,-0.9879,0.0432
1042368,0.0122,-0.9879,0.0433
1042383,0.0122,-0.9879,0.0433
1042393,0.0122,-0.9879,0.0435
1042409,0.0122,-0.9879,0.0435
1042424,0.0122,-0.9879,0.0435
1042440,0.0122,-0.9879,0.0436
1042458,0.0122,-0.9879,0.0436
1042470,0.0123,-0.9879,0.0437
1042486,0.0123,-0.9879,0.0437
1042502,0.0123,-0.9879,0.0437
1042518,0.0123,-0.9880,0.0437
1042538,0.0125,-0.9880,0.0437
1042549,0.0125,-0.9880,0.0437
1042565,0.0123,-0.9879,0.0436
1042617,0.0123,-0.9879,0.0435
1042657,0.0122,-0.9879,0.0433
1042667,0.0122,-0.9879,0.0433
1042683,0.0122,-0.9879,0.0432
1042699,0.0122,-0.9879,0.0432
1042715,0.0122,-0.9879,0.0432
1042733,0.0122,-0.9879,0.0432
1042743,0.0122,-0.9879,0.0432
1042759,0.0122,-0.9880,0.0432
1042775,0.0122,-0.9880,0.0433
1042791,0.0122,-0.9880,0.0433
1042834,0.0121,-0.9882,0.0435
1042850,0.0121,-0.9882,0.0435
1042868,0.0121,-0.9882,0.0436
1042884,0.0121,-0.9882,0.0436
1042895,0.0121,-0.9882,0.0436
1042911,0.0120,-0.9880,0.0437
1042954,0.0120,-0.9879,0.0436
1042964,0.0120,-0.9879,0.0436
1042976,0.0120,-0.9879,0.0436
1043011,0.0121,-0.9878,0.0436
1043025,0.0121,-0.9878,0.0436
1043042,0.0122,-0.9878,0.0437
1043060,0.0122,-0.9878,0.0437
1043076,0.0122,-0.9878,0.0438
1043092,0.0123,-0.9879,0.0439
1043108,0.0123,-0.9879,0.0441
1043126,0.0125,-0.9879,0.0441
1043142,0.0126,-0.9879,0.0442
1043158,0.0126,-0.9879,0.0442
1043168,0.0126,-0.9879,0.0442
1043184,0.0126,-0.9879,0.0442
1043215,0.0126,-0.9879,0.0441
1043257,0.0125,-0.9879,0.0439
1043267,0.0125,-0.9879,0.0439
1043283,0.0123,-0.9878,0.0438
1043299,0.0123,-0.9878,0.0438
1043315,0.0122,-0.9878,0.0438
1043333,0.0122,-0.9878,0.0438
1043349,0.0122,-0.9879,0.0438
1043365,0.0122,-0.9879,0.0438
1043375,0.0122,-0.9879,0.0438
1043391,0.0122,-0.9879,0.0438
1043419,0.0122,-0.9880,0.0438
1043435,0.0121,-0.9880,0.0438
1043450,0.0121,-0.9882,0.0438
1043468,0.0121,-0.9882,0.0438
1043481,0.0121,-0.9882,0.0437
1043497,0.0121,-0.9882,0.0437
1043513,0.0121,-0.9883,0.0438
1043529,0.0121,-0.9883,0.0438
1043561,0.0122,-0.9883,0.0438
1043572,0.0122,-0.9883,0.0438
1043583,0.0122,-0.9883,0.0438
1043628,0.0123,-0.9882,0.0438
1043644,0.0125,-0.9882,0.0438
1043654,0.0125,-0.9882,0.0438
1043670,0.0125,-0.9882,0.0438
1043686,0.0123,-0.9883,0.0438
1043702,0.0123,-0.9883,0.0438
1043720,0.0122,-0.9883,0.0438
1043736,0.0122,-0.9882,0.0438
1043752,0.0122,-0.9882,0.0437
1043768,0.0122,-0.9882,0.0437
1043818,0.0122,-0.9879,0.0437
1043827,0.0122,-0.9879,0.0437
1043869,0.0122,-0.9879,0.0439
1043882,0.0122,-0.9879,0.0441
1043898,0.0123,-0.9879,0.0442
1043909,0.0123,-0.9878,0.0442
1043925,0.0123,-0.9878,0.0443
1043943,0.0123,-0.9878,0.0444
1043957,0.0123,-0.9878,0.0444
1043974,0.0123,-0.9877,0.0444
1043987,0.0122,-0.9877,0.0444
1043997,0.0122,-0.9877,0.0444
1044025,0.0121,-0.9875,0.0444
1044040,0.0121,-0.9875,0.0444
1044056,0.0121,-0.9874,0.0444
1044074,0.0121,-0.9874,0.0444
1044090,0.0120,-0.9874,0.0443
1044106,0.0120,-0.9874,0.0443
1044122,0.0120,-0.9874,0.0443
1044133,0.0120,-0.9874,0.0443
1044143,0.0120,-0.9874,0.0443
1044174,0.0121,-0.9875,0.0442
1044190,0.0121,-0.9877,0.0442
1044200,0.0121,-0.9877,0.0441
1044228,0.0120,-0.9878,0.0441
1044246,0.0120,-0.9878,0.0441
1044255,0.0118,-0.9879,0.0441
1044274,0.0118,-0.9879,0.0441
1044290,0.0118,-0.9879,0.0441
1044306,0.0118,-0.9879,0.0442
1044322,0.0120,-0.9879,0.0442
1044340,0.0120,-0.9879,0.0442
1044356,0.0121,-0.9879,0.0442
1044372,0.0121,-0.9879,0.0442
1044388,0.0122,-0.9879,0.0442
1044426,0.0123,-0.9879,0.0442
1044438,0.0123,-0.9879,0.0441
1044477,0.0125,-0.9878,0.0441
1044492,0.0125,-0.9878,0.0441
1044508,0.0125,-0.9878,0.0441
1044524,0.0125,-0.9878,0.0441
1044538,0.0125,-0.9878,0.0442
1044549,0.0125,-0.9878,0.0442
1044565,0.0123,-0.9878,0.0442
1044581,0.0123,-0.9878,0.0443
1044597,0.0123,-0.9879,0.0443
1044608,0.0122,-0.9879,0.0444
1044653,0.0121,-0.9880,0.0444
1044669,0.0121,-0.9882,0.0444
1044679,0.0121,-0.9882,0.0444
1044695,0.0121,-0.9882,0.0443
1044711,0.0121,-0.9882,0.0442
1044727,0.0121,-0.9882,0.0442
1044745,0.0121,-0.9882,0.0441
1044787,0.0121,-0.9880,0.0439
1044803,0.0121,-0.9880,0.0441
1044849,0.0121,-0.9879,0.0443
1044865,0.0121,-0.9879,0.0444
1044875,0.0121,-0.9879,0.0444
1044891,0.0121,-0.9879,0.0444
1044907,0.0121,-0.9879,0.0444
1044923,0.0121,-0.9879,0.0446
1044943,0.0121,-0.9879,0.0446
1044958,0.0121,-0.9879,0.0446
1044973,0.0121,-0.9879,0.0446
1044989,0.0121,-0.9879,0.0446
1045002,0.0121,-0.9878,0.0446
1045011,0.0121,-0.9878,0.0446
1045022,0.0121,-0.9878,0.0446
1045037,0.0121,-0.9878,0.0446
1045053,0.0121,-0.9877,0.0446
1045064,0.0121,-0.9877,0.0447
1045115,0.0122,-0.9877,0.0447
1045131,0.0122,-0.9877,0.0447
1045141,0.0122,-0.9878,0.0447
1045156,0.0122,-0.9878,0.0447
1045172,0.0122,-0.9878,0.0447
1045188,0.0122,-0.9878,0.0446
1045206,0.0122,-0.9878,0.0446
1045224,0.0123,-0.9877,0.0446
1045240,0.0123,-0.9877,0.0444
1045256,0.0123,-0.9877,0.0444
1045291,0.0123,-0.9875,0.0443
1045307,0.0123,-0.9875,0.0442
1045323,0.0123,-0.9875,0.0442
1045341,0.0123,-0.9875,0.0442
1045357,0.0123,-0.9875,0.0442
1045396,0.0122,-0.9877,0.0442
1045409,0.0121,-0.9877,0.0442
1045427,0.0121,-0.9878,0.0442
1045443,0.0121,-0.9879,0.0442
1045459,0.0121,-0.9879,0.0443
1045487,0.0121,-0.9882,0.0443
1045503,0.0122,-0.9882,0.0444
1045516,0.0122,-0.9882,0.0444
1045534,0.0123,-0.9882,0.0446
1045549,0.0125,-0.9882,0.0446
1045565,0.0126,-0.9882,0.0446
1045581,0.0126,-0.9882,0.0446
1045599,0.0127,-0.9882,0.0447
1045615,0.0127,-0.9882,0.0447
1045634,0.0127,-0.9880,0.0448
1045650,0.0126,-0.9880,0.0448
1045695,0.0125,-0.9880,0.0448
1045736,0.0123,-0.9880,0.0448
1045746,0.0122,-0.9880,0.0448
1045762,0.0122,-0.9879,0.0448
1045773,0.0122,-0.9879,0.0448
1045788,0.0122,-0.9879,0.0448
1045804,0.0122,-0.9879,0.0448
1045814,0.0123,-0.9879,0.0449
1045829,0.0123,-0.9879,0.0449
1045840,0.0123,-0.9879,0.0449
1045856,0.0125,-0.9879,0.0449
1045872,0.0125,-0.9879,0.0449
1045912,0.0125,-0.9879,0.0449
1045927,0.0125,-0.9879,0.0449
1045945,0.0123,-0.9879,0.0448
1045958,0.0123,-0.9879,0.0448
1045973,0.0123,-0.9879,0.0448
1045990,0.0122,-0.9879,0.0447
1046029,0.0122,-0.9878,0.0446
1046047,0.0122,-0.9878,0.0444
1046061,0.0122,-0.9878,0.0444
1046093,0.0121,-0.9878,0.0446
1046108,0.0121,-0.9878,0.0446
1046124,0.0121,-0.9878,0.0447
1046134,0.0121,-0.9878,0.0447
1046149,0.0121,-0.9878,0.0447
1046165,0.0121,-0.9878,0.0448
1046181,0.0122,-0.9879,0.0448
1046199,0.0122,-0.9879,0.0448
1046215,0.0122,-0.9879,0.0448
1046231,0.0123,-0.9879,0.0448
1046259,0.0125,-0.9880,0.0448
1046289,0.0126,-0.9880,0.0448
1046305,0.0126,-0.9880,0.0448
1046346,0.0126,-0.9880,0.0448
1046356,0.0126,-0.9880,0.0449
1046372,0.0126,-0.9880,0.0449
1046388,0.0125,-0.9880,0.0449
1046399,0.0125,-0.9880,0.0449
1046417,0.0125,-0.9880,0.0449
1046433,0.0125,-0.9880,0.0449
1046451,0.0123,-0.9879,0.0448
1046467,0.0123,-0.9879,0.0448
1046503,0.0122,-0.9879,0.0446
1046518,0.0122,-0.9878,0.0446
1046531,0.0122,-0.9878,0.0446
1046549,0.0122,-0.9878,0.0447
1046564,0.0122,-0.9878,0.0447
1046580,0.0122,-0.9878,0.0448
1046596,0.0122,-0.9877,0.0449
1046614,0.0121,-0.9877,0.0452
1046645,0.0120,-0.9877,0.0465
1046656,0.0121,-0.9877,0.0470
1046672,0.0121,-0.9877,0.0482
1046731,0.0123,-0.9883,0.0492
1046749,0.0125,-0.9884,0.0460
1046764,0.0125,-0.9885,0.0446
1046780,0.0127,-0.9885,0.0413
1046796,0.0129,-0.9885,0.0380
1046814,0.0131,-0.9884,0.0339
1046830,0.0133,-0.9884,0.0331
1046846,0.0134,-0.9883,0.0321
1046856,0.0134,-0.9882,0.0322
1046871,0.0134,-0.9880,0.0328
1046911,0.0127,-0.9879,0.0386
1046953,0.0121,-0.9878,0.0461
1046962,0.0118,-0.9877,0.0487
1046976,0.0118,-0.9877,0.0498
1046993,0.0116,-0.9877,0.0514
1047007,0.0115,-0.9877,0.0524
1047026,0.0114,-0.9875,0.0527
1047040,0.0112,-0.9875,0.0529
1047058,0.0114,-0.9874,0.0526
1047074,0.0114,-0.9873,0.0525
1047112,0.0117,-0.9872,0.0524
1047128,0.0118,-0.9873,0.0525
1047144,0.0120,-0.9874,0.0526
1047154,0.0120,-0.9874,0.0525
1047170,0.0121,-0.9875,0.0521
1047186,0.0125,-0.9877,0.0513
1047202,0.0127,-0.9878,0.0496
1047220,0.0131,-0.9879,0.0471
1047251,0.0134,-0.9880,0.0408
1047261,0.0134,-0.9880,0.0393
1047277,0.0134,-0.9880,0.0365
1047305,0.0134,-0.9880,0.0337
1047321,0.0134,-0.9880,0.0332
1047337,0.0132,-0.9880,0.0338
1047355,0.0128,-0.9880,0.0355
1047366,0.0125,-0.9880,0.0378
1047382,0.0121,-0.9880,0.0408
1047398,0.0118,-0.9880,0.0438
1047416,0.0117,-0.9879,0.0465
1047432,0.0117,-0.9879,0.0487
1047448,0.0117,-0.9880,0.0500
1047466,0.0118,-0.9880,0.0504
1047501,0.0125,-0.9882,0.0483
1047517,0.0128,-0.9882,0.0463
1047558,0.0128,-0.9879,0.0410
1047568,0.0128,-0.9879,0.0403
1047584,0.0126,-0.9878,0.0392
1047600,0.0125,-0.9877,0.0387
1047616,0.0123,-0.9875,0.0391
1047634,0.0121,-0.9875,0.0402
1047650,0.0120,-0.9874,0.0417
1047669,0.0118,-0.9874,0.0448
1047680,0.0118,-0.9874,0.0459
1047732,0.0120,-0.9875,0.0511
1047748,0.0122,-0.9874,0.0520
1047766,0.0125,-0.9873,0.0527
1047782,0.0125,-0.9873,0.0529
1047798,0.0123,-0.9872,0.0530
1047814,0.0122,-0.9872,0.0530
1047832,0.0117,-0.9873,0.0529
1047866,0.0115,-0.9873,0.0511
1047877,0.0116,-0.9874,0.0504
1047925,0.0120,-0.9878,0.0448
1047942,0.0122,-0.9879,0.0425
1047950,0.0123,-0.9880,0.0413
1047959,0.0125,-0.9880,0.0402
1047974,0.0127,-0.9880,0.0381
1047991,0.0128,-0.9879,0.0369
1048005,0.0129,-0.9879,0.0365
1048017,0.0129,-0.9879,0.0366
1048027,0.0129,-0.9878,0.0371
1048043,0.0128,-0.9878,0.0386
1048056,0.0126,-0.9878,0.0403
1048072,0.0125,-0.9878,0.0419
1048082,0.0123,-0.9878,0.0426
1048113,0.0121,-0.9877,0.0443
1048128,0.0120,-0.9877,0.0448
1048167,0.0120,-0.9878,0.0459
1048177,0.0121,-0.9879,0.0465
1048193,0.0122,-0.9882,0.0469
1048208,0.0122,-0.9882,0.0470
1048224,0.0122,-0.9882,0.0469
1048242,0.0123,-0.9880,0.0463
1048258,0.0125,-0.9879,0.0458
1048276,0.0126,-0.9879,0.0455
1048290,0.0126,-0.9879,0.0455
1048328,0.0129,-0.9882,0.0447
1048344,0.0132,-0.9882,0.0439
1048360,0.0135,-0.9880,0.0430
1048370,0.0137,-0.9880,0.0425
1048386,0.0140,-0.9879,0.0415
1048402,0.0143,-0.9880,0.0404
1048418,0.0145,-0.9880,0.0392
1048436,0.0145,-0.9882,0.0378
1048475,0.0140,-0.9880,0.0339
1048493,0.0135,-0.9879,0.0331
1048521,0.0123,-0.9877,0.0358
1048536,0.0121,-0.9875,0.0377
1048552,0.0117,-0.9875,0.0430
1048565,0.0114,-0.9875,0.0494
1048575,0.0112,-0.9875,0.0529
1048591,0.0112,-0.9875,0.0596
1048607,0.0111,-0.9875,0.0653
1048622,0.0110,-0.9874,0.0697
1048634,0.0111,-0.9874,0.0712
1048644,0.0112,-0.9875,0.0726
1048660,0.0114,-0.9877,0.0720
1048676,0.0117,-0.9877,0.0708
1048695,0.0121,-0.9880,0.0640
1048740,0.0126,-0.9880,0.0450
1048782,0.0126,-0.9879,0.0303
1048792,0.0126,-0.9880,0.0281
1048807,0.0126,-0.9882,0.0278
1048823,0.0127,-0.9884,0.0286
1048839,0.0129,-0.9884,0.0305
1048857,0.0132,-0.9885,0.0347
1048873,0.0134,-0.9885,0.0361
1048889,0.0137,-0.9885,0.0392
1048899,0.0138,-0.9885,0.0420
1048915,0.0138,-0.9885,0.0444
1048955,0.0135,-0.9885,0.0474
1048966,0.0135,-0.9884,0.0479
1048981,0.0134,-0.9883,0.0479
1048991,0.0133,-0.9883,0.0476
1049006,0.0133,-0.9880,0.0469
1049022,0.0133,-0.9879,0.0461
1049037,0.0133,-0.9878,0.0457
1049055,0.0133,-0.9878,0.0443
1049091,0.0131,-0.9877,0.0422
1049102,0.0129,-0.9877,0.0417
1049140,0.0128,-0.9877,0.0396
1049155,0.0126,-0.9877,0.0396
1049171,0.0122,-0.9877,0.0405
1049181,0.0120,-0.9878,0.0415
1049197,0.0116,-0.9878,0.0439
1049213,0.0112,-0.9879,0.0474
1049229,0.0110,-0.9879,0.0511
1049240,0.0109,-0.9879,0.0532
1049250,0.0109,-0.9879,0.0552
1049266,0.0109,-0.9879,0.0592
1049282,0.0112,-0.9882,0.0624
1049298,0.0117,-0.9883,0.0640
1049308,0.0120,-0.9883,0.0631
1049336,0.0131,-0.9879,0.0575
1049352,0.0135,-0.9877,0.0519
1049394,0.0143,-0.9873,0.0394
1049404,0.0142,-0.9873,0.0378
1049420,0.0139,-0.9874,0.0356
1049436,0.0135,-0.9877,0.0345
1049452,0.0132,-0.9877,0.0341
1049470,0.0129,-0.9877,0.0342
1049486,0.0128,-0.9877,0.0349
1049502,0.0126,-0.9877,0.0361
1049512,0.0125,-0.9878,0.0370
1049523,0.0123,-0.9879,0.0391
1049551,0.0122,-0.9879,0.0426
1049567,0.0122,-0.9879,0.0449
1049580,0.0125,-0.9879,0.0472
1049598,0.0127,-0.9880,0.0491
1049614,0.0129,-0.9880,0.0505
1049630,0.0132,-0.9880,0.0515
1049646,0.0134,-0.9880,0.0520
1049663,0.0137,-0.9880,0.0519
1049694,0.0135,-0.9880,0.0497
1049710,0.0135,-0.9880,0.0475
1049721,0.0134,-0.9880,0.0463
1049766,0.0129,-0.9878,0.0400
1049782,0.0129,-0.9875,0.0385
1049792,0.0129,-0.9873,0.0377
1049808,0.0128,-0.9865,0.0378
1049819,0.0123,-0.9850,0.0387
1049835,0.0116,-0.9832,0.0405
1049853,0.0110,-0.9813,0.0432
1049869,0.0110,-0.9799,0.0463
1049885,0.0116,-0.9788,0.0494
1049901,0.0126,-0.9786,0.0522
1049919,0.0135,-0.9796,0.0546
1049929,0.0139,-0.9805,0.0554
1049945,0.0148,-0.9832,0.0568
1049959,0.0154,-0.9862,0.0573
1049998,0.0165,-0.9937,0.0557
1050039,0.0166,-0.9968,0.0533
1050054,0.0166,-0.9969,0.0531
1050072,0.0162,-0.9961,0.0525
1050085,0.0161,-0.9956,0.0522
1050101,0.0160,-0.9941,0.0518
1050117,0.0157,-0.9926,0.0511
1050155,0.0149,-0.9888,0.0488
1050164,0.0148,-0.9882,0.0485
1050175,0.0146,-0.9875,0.0480
1050191,0.0145,-0.9867,0.0475
1050204,0.0144,-0.9862,0.0472
1050220,0.0145,-0.9858,0.0474
1050236,0.0146,-0.9858,0.0477
1050251,0.0148,-0.9860,0.0480
1050261,0.0150,-0.9862,0.0483
1050313,0.0156,-0.9872,0.0492
1050327,0.0157,-0.9875,0.0494
1050337,0.0159,-0.9877,0.0496
1050353,0.0157,-0.9880,0.0498
1050369,0.0157,-0.9882,0.0498
1050404,0.0154,-0.9883,0.0496
1050420,0.0150,-0.9882,0.0496
1050436,0.0148,-0.9880,0.0498
1050454,0.0145,-0.9877,0.0507
1050470,0.0143,-0.9874,0.0522
1050481,0.0142,-0.9872,0.0544
1050497,0.0140,-0.9871,0.0558
1050515,0.0140,-0.9871,0.0594
1050531,0.0143,-0.9872,0.0607
1050541,0.0144,-0.9873,0.0605
1050557,0.0148,-0.9873,0.0590
1050573,0.0151,-0.9874,0.0560
1050629,0.0161,-0.9880,0.0450
1050647,0.0162,-0.9882,0.0437
1050663,0.0164,-0.9883,0.0436
1050676,0.0164,-0.9883,0.0439
1050692,0.0164,-0.9882,0.0454
1050710,0.0164,-0.9879,0.0475
1050726,0.0162,-0.9878,0.0499
1050745,0.0159,-0.9875,0.0533
1050761,0.0156,-0.9875,0.0549
1050809,0.0151,-0.9875,0.0552
1050825,0.0150,-0.9875,0.0547
1050835,0.0150,-0.9877,0.0535
1050851,0.0151,-0.9878,0.0522
1050866,0.0153,-0.9878,0.0515
1050889,0.0155,-0.9880,0.0498
1050899,0.0156,-0.9880,0.0493
1050915,0.0157,-0.9882,0.0485
1050931,0.0160,-0.9882,0.0480
1050949,0.0161,-0.9882,0.0479
1050996,0.0165,-0.9879,0.0493
1051012,0.0165,-0.9878,0.0499
1051028,0.0165,-0.9877,0.0507
1051045,0.0165,-0.9874,0.0511
1051061,0.0164,-0.9874,0.0515
1051077,0.0162,-0.9873,0.0518
1051091,0.0160,-0.9873,0.0519
1051101,0.0160,-0.9873,0.0520
1051117,0.0159,-0.9874,0.0520
1051133,0.0157,-0.9874,0.0518
1051151,0.0156,-0.9874,0.0515
1051186,0.0151,-0.9877,0.0511
1051243,0.0148,-0.9879,0.0508
1051256,0.0148,-0.9879,0.0507
1051272,0.0148,-0.9879,0.0507
1051288,0.0148,-0.9878,0.0509
1051304,0.0149,-0.9877,0.0515
1051314,0.0150,-0.9877,0.0519
1051330,0.0151,-0.9875,0.0526
1051346,0.0153,-0.9874,0.0533
1051356,0.0153,-0.9873,0.0536
1051372,0.0155,-0.9873,0.0538
1051400,0.0156,-0.9872,0.0531
1051416,0.0157,-0.9872,0.0522
1051427,0.0157,-0.9872,0.0518
1051445,0.0157,-0.9872,0.0509
1051461,0.0159,-0.9873,0.0503
1051477,0.0159,-0.9874,0.0500
1051493,0.0159,-0.9875,0.0500
1051518,0.0159,-0.9878,0.0500
1051528,0.0159,-0.9878,0.0500
1051544,0.0160,-0.9879,0.0499
1051562,0.0161,-0.9880,0.0498
1051578,0.0161,-0.9883,0.0500
1051594,0.0160,-0.9886,0.0503
1051622,0.0157,-0.9902,0.0504
1051637,0.0156,-0.9908,0.0503
1051653,0.0157,-0.9919,0.0496
1051671,0.0160,-0.9933,0.0483
1051682,0.0160,-0.9934,0.0479
1051697,0.0156,-0.9934,0.0470
1051713,0.0149,-0.9927,0.0465
1051729,0.0140,-0.9917,0.0464
1051739,0.0137,-0.9910,0.0466
1051755,0.0131,-0.9894,0.0471
1051766,0.0127,-0.9885,0.0476
1051782,0.0122,-0.9868,0.0487
1051845,0.0116,-0.9823,0.0533
1051886,0.0121,-0.9825,0.0538
1051896,0.0122,-0.9829,0.0537
1051912,0.0126,-0.9836,0.0530
1051928,0.0128,-0.9846,0.0521
1051944,0.0131,-0.9856,0.0509
1051960,0.0133,-0.9865,0.0497
1051971,0.0134,-0.9869,0.0490
1051987,0.0134,-0.9877,0.0477
1051998,0.0135,-0.9880,0.0472
1052013,0.0135,-0.9885,0.0463
1052053,0.0134,-0.9890,0.0452
1052069,0.0134,-0.9890,0.0453
1052087,0.0133,-0.9889,0.0455
1052100,0.0133,-0.9886,0.0460
1052116,0.0132,-0.9884,0.0466
1052132,0.0132,-0.9882,0.0472
1052150,0.0132,-0.9879,0.0479
1052181,0.0133,-0.9877,0.0486
1052191,0.0134,-0.9875,0.0487
1052207,0.0134,-0.9874,0.0488
1052235,0.0135,-0.9874,0.0487
1052251,0.0135,-0.9874,0.0485
1052267,0.0135,-0.9875,0.0482
1052285,0.0135,-0.9875,0.0480
1052301,0.0137,-0.9877,0.0477
1052327,0.0137,-0.9878,0.0475
1052339,0.0137,-0.9879,0.0474
1052354,0.0137,-0.9879,0.0474
1052370,0.0135,-0.9879,0.0472
1052386,0.0134,-0.9880,0.0472
1052396,0.0134,-0.9880,0.0472
1052431,0.0132,-0.9879,0.0474
1052447,0.0132,-0.9879,0.0475
1052489,0.0132,-0.9878,0.0477
1052499,0.0132,-0.9878,0.0477
1052515,0.0132,-0.9877,0.0477
1052531,0.0132,-0.9877,0.0479
1052547,0.0132,-0.9877,0.0479
1052565,0.0132,-0.9878,0.0479
1052581,0.0132,-0.9878,0.0479
1052599,0.0132,-0.9878,0.0479
1052612,0.0133,-0.9879,0.0479
1052647,0.0133,-0.9880,0.0480
1052662,0.0133,-0.9880,0.0480
1052678,0.0133,-0.9882,0.0480
1052696,0.0133,-0.9882,0.0481
1052707,0.0133,-0.9882,0.0481
1052723,0.0133,-0.9882,0.0481
1052737,0.0133,-0.9880,0.0482
1052754,0.0133,-0.9880,0.0482
1052764,0.0133,-0.9880,0.0482
1052795,0.0133,-0.9878,0.0481
1052806,0.0133,-0.9878,0.0481
1052822,0.0133,-0.9877,0.0480
1052867,0.0133,-0.9877,0.0479
1052883,0.0132,-0.9877,0.0477
1052893,0.0132,-0.9877,0.0477
1052909,0.0132,-0.9877,0.0476
1052925,0.0132,-0.9878,0.0476
1052941,0.0133,-0.9878,0.0476
1052957,0.0133,-0.9878,0.0476
1052972,0.0133,-0.9879,0.0477
1052989,0.0134,-0.9879,0.0477
1053000,0.0135,-0.9879,0.0479
1053010,0.0135,-0.9879,0.0479
1053050,0.0137,-0.9879,0.0480
1053066,0.0137,-0.9879,0.0480
1053098,0.0137,-0.9879,0.0480
1053108,0.0137,-0.9879,0.0480
1053121,0.0137,-0.9879,0.0480
1053137,0.0137,-0.9879,0.0479
1053153,0.0135,-0.9879,0.0479
1053171,0.0135,-0.9879,0.0479
1053187,0.0134,-0.9879,0.0477
1053203,0.0134,-0.9879,0.0477
1053213,0.0133,-0.9879,0.0477
1053227,0.0132,-0.9879,0.0479
1053255,0.0131,-0.9879,0.0479
1053267,0.0131,-0.9880,0.0479
1053283,0.0131,-0.9880,0.0480
1053301,0.0129,-0.9880,0.0480
1053317,0.0131,-0.9880,0.0480
1053333,0.0131,-0.9880,0.0481
1053349,0.0131,-0.9880,0.0481
1053367,0.0132,-0.9880,0.0481
1053401,0.0133,-0.9879,0.0480
1053419,0.0133,-0.9879,0.0480
1053450,0.0133,-0.9879,0.0479
1053466,0.0133,-0.9878,0.0479
1053482,0.0133,-0.9878,0.0479
1053492,0.0133,-0.9878,0.0479
1053507,0.0133,-0.9877,0.0479
1053523,0.0133,-0.9877,0.0479
1053539,0.0132,-0.9877,0.0479
1053557,0.0132,-0.9877,0.0479
1053568,0.0132,-0.9877,0.0479
1053584,0.0131,-0.9877,0.0479
1053600,0.0131,-0.9877,0.0479
1053618,0.0131,-0.9877,0.0479
1053633,0.0131,-0.9878,0.0479
1053649,0.0132,-0.9878,0.0479
1053665,0.0132,-0.9878,0.0479
1053724,0.0132,-0.9878,0.0479
1053739,0.0132,-0.9878,0.0479
1053749,0.0132,-0.9878,0.0479
1053766,0.0132,-0.9878,0.0479
1053782,0.0131,-0.9877,0.0479
1053798,0.0131,-0.9877,0.0477
1053816,0.0129,-0.9877,0.0477
1053835,0.0129,-0.9877,0.0477
1053851,0.0129,-0.9877,0.0476
1053867,0.0129,-0.9877,0.0476
1053915,0.0131,-0.9878,0.0476
1053931,0.0132,-0.9878,0.0476
1053941,0.0132,-0.9878,0.0476
1053957,0.0133,-0.9878,0.0476
1053971,0.0133,-0.9879,0.0476
1054011,0.0133,-0.9878,0.0476
1054021,0.0133,-0.9878,0.0476
1054039,0.0133,-0.9877,0.0476
1054055,0.0133,-0.9877,0.0477
1054071,0.0132,-0.9875,0.0477
1054119,0.0131,-0.9874,0.0479
1054132,0.0132,-0.9874,0.0480
1054149,0.0132,-0.9874,0.0481
1054165,0.0132,-0.9875,0.0481
1054180,0.0132,-0.9875,0.0481
1054196,0.0133,-0.9875,0.0481
1054207,0.0133,-0.9877,0.0481
1054217,0.0133,-0.9877,0.0481
1054233,0.0133,-0.9878,0.0481
1054243,0.0134,-0.9878,0.0481
1054259,0.0134,-0.9878,0.0481
1054274,0.0134,-0.9878,0.0480
1054302,0.0134,-0.9879,0.0479
1054353,0.0132,-0.9878,0.0479
1054366,0.0132,-0.9878,0.0480
1054382,0.0131,-0.9878,0.0480
1054398,0.0129,-0.9877,0.0481
1054414,0.0128,-0.9877,0.0482
1054424,0.0128,-0.9877,0.0482
1054440,0.0128,-0.9877,0.0483
1054450,0.0127,-0.9877,0.0483
1054466,0.0127,-0.9875,0.0483
1054482,0.0127,-0.9875,0.0483
1054516,0.0127,-0.9875,0.0483
1054532,0.0128,-0.9877,0.0483
1054548,0.0128,-0.9877,0.0483
1054558,0.0128,-0.9877,0.0482
1054574,0.0129,-0.9877,0.0482
1054590,0.0129,-0.9878,0.0481
1054606,0.0131,-0.9879,0.0481
1054643,0.0132,-0.9880,0.0479
1054673,0.0132,-0.9882,0.0479
1054689,0.0132,-0.9882,0.0479
1054705,0.0132,-0.9882,0.0477
1054715,0.0131,-0.9880,0.0477
1054731,0.0131,-0.9880,0.0479
1054746,0.0131,-0.9880,0.0479
1054762,0.0131,-0.9879,0.0479
1054778,0.0131,-0.9879,0.0480
1054795,0.0131,-0.9879,0.0481
1054806,0.0131,-0.9878,0.0481
1054822,0.0131,-0.9878,0.0482
1054838,0.0131,-0.9878,0.0482
1054848,0.0131,-0.9878,0.0483
1054859,0.0131,-0.9878,0.0483
1054875,0.0131,-0.9877,0.0483
1054891,0.0131,-0.9877,0.0483
1054943,0.0132,-0.9877,0.0483
1054974,0.0133,-0.9877,0.0483
1054984,0.0133,-0.9877,0.0483
1054998,0.0134,-0.9877,0.0483
1055014,0.0134,-0.9877,0.0483
1055030,0.0134,-0.9877,0.0483
1055048,0.0135,-0.9878,0.0483
1055066,0.0135,-0.9878,0.0483
1055082,0.0135,-0.9879,0.0483
1055098,0.0135,-0.9879,0.0483
1055109,0.0134,-0.9879,0.0483
1055149,0.0133,-0.9879,0.0482
1055162,0.0133,-0.9879,0.0481
1055180,0.0132,-0.9879,0.0481
1055196,0.0132,-0.9879,0.0481
1055212,0.0132,-0.9878,0.0481
1055228,0.0132,-0.9878,0.0481
1055246,0.0132,-0.9878,0.0481
1055277,0.0132,-0.9878,0.0480
1055287,0.0132,-0.9878,0.0480
1055302,0.0132,-0.9878,0.0480
1055330,0.0133,-0.9879,0.0480
1055346,0.0133,-0.9880,0.0481
1055361,0.0133,-0.9880,0.0481
1055379,0.0132,-0.9880,0.0481
1055394,0.0132,-0.9880,0.0481
1055410,0.0132,-0.9880,0.0481
1055426,0.0132,-0.9879,0.0481
1055444,0.0132,-0.9879,0.0481
1055460,0.0132,-0.9878,0.0481
1055471,0.0132,-0.9878,0.0481
1055489,0.0132,-0.9878,0.0481
1055524,0.0132,-0.9877,0.0481
1055540,0.0131,-0.9877,0.0481
1055582,0.0129,-0.9877,0.0480
1055595,0.0129,-0.9877,0.0479
1055611,0.0129,-0.9877,0.0477
1055627,0.0131,-0.9877,0.0477
1055643,0.0131,-0.9878,0.0476
1055653,0.0131,-0.9878,0.0476
1055666,0.0131,-0.9878,0.0476
1055681,0.0132,-0.9878,0.0476
1055691,0.0132,-0.9879,0.0476
1055707,0.0133,-0.9879,0.0476
1055735,0.0134,-0.9879,0.0477
1055747,0.0134,-0.9879,0.0479
1055763,0.0134,-0.9879,0.0480
1055781,0.0134,-0.9879,0.0481
1055795,0.0134,-0.9878,0.0482
1055811,0.0133,-0.9878,0.0482
1055827,0.0133,-0.9878,0.0483
1055845,0.0133,-0.9878,0.0483
1055884,0.0133,-0.9877,0.0485
1055895,0.0132,-0.9877,0.0485
1055947,0.0132,-0.9877,0.0485
1055961,0.0131,-0.9877,0.0485
1055978,0.0131,-0.9877,0.0485
1055992,0.0131,-0.9877,0.0485
1056008,0.0131,-0.9877,0.0485
1056024,0.0129,-0.9877,0.0483
1056042,0.0128,-0.9878,0.0483
1056058,0.0127,-0.9879,0.0483
1056069,0.0127,-0.9879,0.0482
1056085,0.0126,-0.9880,0.0482
1056095,0.0126,-0.9880,0.0482
1056135,0.0127,-0.9880,0.0483
1056151,0.0128,-0.9879,0.0483
1056195,0.0129,-0.9878,0.0483
1056211,0.0129,-0.9877,0.0483
1056227,0.0131,-0.9875,0.0483
1056237,0.0131,-0.9875,0.0483
1056253,0.0132,-0.9875,0.0483
1056269,0.0133,-0.9875,0.0483
1056285,0.0133,-0.9875,0.0483
1056323,0.0134,-0.9875,0.0483
1056337,0.0134,-0.9877,0.0483
1056353,0.0134,-0.9877,0.0483
1056371,0.0134,-0.9877,0.0483
1056384,0.0134,-0.9877,0.0483
1056396,0.0133,-0.9877,0.0483
1056411,0.0133,-0.9877,0.0483
1056427,0.0132,-0.9877,0.0483
1056445,0.0132,-0.9875,0.0483
1056461,0.0132,-0.9875,0.0482
1056496,0.0132,-0.9874,0.0482
1056526,0.0133,-0.9874,0.0481
1056542,0.0133,-0.9874,0.0481
1056558,0.0133,-0.9875,0.0481
1056568,0.0133,-0.9875,0.0480
1056584,0.0133,-0.9875,0.0480
1056600,0.0133,-0.9875,0.0480
1056616,0.0133,-0.9875,0.0481
1056637,0.0133,-0.9875,0.0481
1056653,0.0133,-0.9877,0.0482
1056669,0.0132,-0.9877,0.0482
1056683,0.0132,-0.9877,0.0482
1056700,0.0132,-0.9877,0.0483
1056710,0.0132,-0.9877,0.0483
1056726,0.0131,-0.9878,0.0483
1056742,0.0131,-0.9878,0.0485
1056758,0.0131,-0.9878,0.0485
1056786,0.0132,-0.9878,0.0485
1056817,0.0132,-0.9878,0.0483
1056833,0.0132,-0.9878,0.0483
1056850,0.0132,-0.9878,0.0482
1056866,0.0132,-0.9878,0.0481
1056882,0.0132,-0.9877,0.0481
1056900,0.0132,-0.9877,0.0480
1056919,0.0132,-0.9877,0.0480
1056935,0.0132,-0.9877,0.0480
1056950,0.0132,-0.9875,0.0479
1057006,0.0132,-0.9877,0.0480
1057023,0.0132,-0.9877,0.0481
1057035,0.0132,-0.9877,0.0481
1057050,0.0133,-0.9877,0.0482
1057066,0.0133,-0.9878,0.0483
1057082,0.0133,-0.9878,0.0483
1057092,0.0133,-0.9878,0.0483
1057127,0.0133,-0.9878,0.0485
1057138,0.0132,-0.9878,0.0485
1057186,0.0132,-0.9878,0.0483
1057199,0.0132,-0.9878,0.0483
1057217,0.0131,-0.9878,0.0482
1057233,0.0131,-0.9878,0.0482
1057248,0.0131,-0.9878,0.0481
1057264,0.0132,-0.9878,0.0481
1057282,0.0132,-0.9879,0.0480
1057297,0.0132,-0.9879,0.0480
1057313,0.0133,-0.9879,0.0480
1057329,0.0133,-0.9879,0.0480
1057342,0.0133,-0.9878,0.0480
1057369,0.0133,-0.9878,0.0481
1057385,0.0133,-0.9878,0.0481
1057424,0.0134,-0.9877,0.0482
1057434,0.0133,-0.9877,0.0482
1057450,0.0133,-0.9877,0.0483
1057466,0.0133,-0.9877,0.0483
1057482,0.0133,-0.9878,0.0483
1057500,0.0133,-0.9878,0.0483
1057516,0.0133,-0.9879,0.0483
1057532,0.0133,-0.9879,0.0483
1057542,0.0134,-0.9879,0.0483
1057558,0.0134,-0.9879,0.0483
1057586,0.0137,-0.9879,0.0485
1057602,0.0137,-0.9879,0.0485
1057617,0.0137,-0.9879,0.0485
1057635,0.0138,-0.9878,0.0485
1057647,0.0137,-0.9878,0.0485
1057663,0.0137,-0.9878,0.0485
1057679,0.0137,-0.9878,0.0485
1057700,0.0135,-0.9878,0.0485
1057749,0.0133,-0.9878,0.0483
1057779,0.0132,-0.9878,0.0482
1057795,0.0131,-0.9878,0.0482
1057811,0.0131,-0.9878,0.0482
1057821,0.0131,-0.9877,0.0482
1057837,0.0129,-0.9877,0.0482
1057853,0.0129,-0.9877,0.0482
1057867,0.0129,-0.9877,0.0483
1057886,0.0131,-0.9877,0.0483
1057902,0.0131,-0.9875,0.0485
1057918,0.0132,-0.9875,0.0485
1057934,0.0132,-0.9875,0.0486
1057954,0.0133,-0.9875,0.0486
1057970,0.0133,-0.9877,0.0486
1057984,0.0133,-0.9877,0.0486
1058001,0.0132,-0.9878,0.0486
1058025,0.0132,-0.9878,0.0486
1058070,0.0129,-0.9879,0.0485
1058086,0.0129,-0.9879,0.0483
1058104,0.0129,-0.9879,0.0483
1058120,0.0129,-0.9879,0.0483
1058136,0.0128,-0.9879,0.0482
1058152,0.0128,-0.9879,0.0482
1058202,0.0129,-0.9879,0.0482
1058215,0.0131,-0.9879,0.0482
1058233,0.0131,-0.9880,0.0482
1058249,0.0132,-0.9880,0.0482
1058265,0.0132,-0.9880,0.0481
1058281,0.0132,-0.9880,0.0481
1058299,0.0132,-0.9880,0.0481
1058344,0.0133,-0.9879,0.0480
1058362,0.0133,-0.9879,0.0480
1058382,0.0133,-0.9879,0.0480
1058394,0.0133,-0.9878,0.0480
1058410,0.0133,-0.9878,0.0480
1058448,0.0133,-0.9878,0.0481
1058464,0.0133,-0.9878,0.0481
1058480,0.0134,-0.9878,0.0482
1058490,0.0134,-0.9878,0.0482
1058506,0.0134,-0.9878,0.0483
1058522,0.0135,-0.9878,0.0483
1058538,0.0135,-0.9878,0.0485
1058556,0.0135,-0.9878,0.0485
1058574,0.0135,-0.9878,0.0486
1058590,0.0135,-0.9878,0.0487
1058606,0.0135,-0.9878,0.0487
1058668,0.0132,-0.9877,0.0490
1058677,0.0131,-0.9877,0.0488
1058690,0.0131,-0.9877,0.0488
1058706,0.0129,-0.9877,0.0488
1058720,0.0128,-0.9877,0.0488
1058736,0.0128,-0.9877,0.0487
1058754,0.0127,-0.9877,0.0487
1058770,0.0127,-0.9877,0.0486
1058780,0.0127,-0.9877,0.0485
1058796,0.0128,-0.9878,0.0485
1058812,0.0128,-0.9878,0.0483
1058840,0.0129,-0.9879,0.0483
1058856,0.0131,-0.9879,0.0485
1058872,0.0132,-0.9879,0.0485
1058888,0.0133,-0.9880,0.0486
1058905,0.0134,-0.9879,0.0486
1058921,0.0134,-0.9879,0.0486
1058956,0.0135,-0.9879,0.0486
1058965,0.0135,-0.9879,0.0486
1058984,0.0134,-0.9879,0.0486
1059000,0.0134,-0.9879,0.0485
1059014,0.0134,-0.9880,0.0483
1059067,0.0133,-0.9880,0.0482
1059083,0.0132,-0.9880,0.0482
1059101,0.0132,-0.9879,0.0482
1059117,0.0131,-0.9879,0.0482
1059133,0.0131,-0.9879,0.0483
1059149,0.0131,-0.9878,0.0483
1059167,0.0129,-0.9878,0.0485
1059185,0.0129,-0.9878,0.0485
1059200,0.0129,-0.9878,0.0485
1059216,0.0128,-0.9878,0.0486
1059228,0.0128,-0.9878,0.0486
1059279,0.0129,-0.9879,0.0486
1059295,0.0129,-0.9879,0.0486
1059305,0.0129,-0.9879,0.0486
1059321,0.0129,-0.9880,0.0486
1059332,0.0129,-0.9880,0.0486
1059348,0.0129,-0.9880,0.0486
1059366,0.0131,-0.9880,0.0486
1059382,0.0131,-0.9880,0.0485
1059392,0.0131,-0.9880,0.0485
1059406,0.0131,-0.9880,0.0485
1059423,0.0131,-0.9880,0.0483
1059451,0.0131,-0.9880,0.0483
1059467,0.0131,-0.9880,0.0482
1059483,0.0131,-0.9880,0.0482
1059501,0.0131,-0.9879,0.0482
1059517,0.0132,-0.9879,0.0482
1059533,0.0132,-0.9879,0.0483
1059580,0.0132,-0.9877,0.0483
1059590,0.0132,-0.9877,0.0483
1059600,0.0132,-0.9877,0.0483
1059616,0.0132,-0.9877,0.0483
1059627,0.0132,-0.9877,0.0483
1059643,0.0132,-0.9877,0.0483
1059671,0.0133,-0.9877,0.0483
1059687,0.0132,-0.9877,0.0483
1059703,0.0132,-0.9878,0.0483
1059724,0.0132,-0.9878,0.0485
1059737,0.0131,-0.9879,0.0485
1059753,0.0131,-0.9879,0.0485
1059769,0.0131,-0.9879,0.0485
1059787,0.0131,-0.9879,0.0485
1059805,0.0131,-0.9879,0.0485
1059821,0.0132,-0.9878,0.0485
1059837,0.0132,-0.9878,0.0485
1059868,0.0132,-0.9877,0.0485
1059896,0.0132,-0.9875,0.0483
1059907,0.0132,-0.9875,0.0483
1059920,0.0133,-0.9875,0.0483
1059939,0.0133,-0.9875,0.0483
1059955,0.0133,-0.9875,0.0483
1059969,0.0133,-0.9875,0.0482
1059986,0.0133,-0.9875,0.0482
1060003,0.0132,-0.9875,0.0482
1060015,0.0132,-0.9877,0.0483
1060031,0.0132,-0.9877,0.0483
1060047,0.0131,-0.9877,0.0483
1060099,0.0131,-0.9878,0.0485
1060115,0.0131,-0.9878,0.0485
1060133,0.0129,-0.9878,0.0485
1060175,0.0131,-0.9878,0.0486
1060191,0.0131,-0.9878,0.0486
1060201,0.0131,-0.9878,0.0487
1060219,0.0131,-0.9878,0.0487
1060230,0.0132,-0.9877,0.0487
1060242,0.0131,-0.9877,0.0487
1060258,0.0131,-0.9877,0.0487
1060298,0.0129,-0.9877,0.0487
1060314,0.0129,-0.9877,0.0487
1060332,0.0129,-0.9877,0.0486
1060348,0.0129,-0.9877,0.0486
1060364,0.0129,-0.9877,0.0485
1060380,0.0129,-0.9877,0.0485
1060398,0.0129,-0.9877,0.0485
1060411,0.0129,-0.9877,0.0485
1060422,0.0131,-0.9877,0.0485
1060438,0.0131,-0.9877,0.0485
1060477,0.0131,-0.9875,0.0485
1060505,0.0131,-0.9875,0.0486
1060521,0.0131,-0.9875,0.0486
1060537,0.0131,-0.9874,0.0486
1060555,0.0131,-0.9874,0.0486
1060570,0.0131,-0.9874,0.0486
1060581,0.0131,-0.9874,0.0486
1060597,0.0131,-0.9874,0.0487
1060613,0.0132,-0.9874,0.0487
1060643,0.0132,-0.9875,0.0487
1060659,0.0132,-0.9875,0.0486
1060675,0.0132,-0.9877,0.0486
1060685,0.0132,-0.9877,0.0486
1060701,0.0132,-0.9877,0.0486
1060717,0.0132,-0.9878,0.0486
1060733,0.0132,-0.9878,0.0486
1060746,0.0132,-0.9878,0.0487
1060756,0.0132,-0.9878,0.0487
1060788,0.0132,-0.9878,0.0487
1060804,0.0131,-0.9877,0.0487
1060824,0.0131,-0.9877,0.0487
1060838,0.0131,-0.9877,0.0487
1060854,0.0131,-0.9877,0.0487
1060870,0.0131,-0.9877,0.0486
1060905,0.0131,-0.9877,0.0486
1060921,0.0131,-0.9877,0.0486
1060935,0.0129,-0.9877,0.0485
1060952,0.0129,-0.9877,0.0485
1060968,0.0129,-0.9877,0.0483
1060984,0.0131,-0.9877,0.0483
1060998,0.0131,-0.9877,0.0482
1061017,0.0131,-0.9878,0.0482
1061036,0.0131,-0.9878,0.0482
1061052,0.0132,-0.9878,0.0482
1061094,0.0132,-0.9879,0.0482
1061139,0.0132,-0.9879,0.0483
1061155,0.0132,-0.9880,0.0483
1061165,0.0131,-0.9880,0.0483
1061176,0.0131,-0.9880,0.0483
1061192,0.0131,-0.9882,0.0485
1061208,0.0129,-0.9882,0.0485
1061226,0.0129,-0.9882,0.0485
1061237,0.0129,-0.9882,0.0486
1061250,0.0129,-0.9882,0.0486
1061266,0.0129,-0.9882,0.0486
1061282,0.0129,-0.9882,0.0486
1061322,0.0129,-0.9880,0.0485
1061338,0.0129,-0.9880,0.0485
1061356,0.0131,-0.9880,0.0483
1061395,0.0132,-0.9879,0.0483
1061411,0.0132,-0.9879,0.0482
1061421,0.0132,-0.9879,0.0482
1061439,0.0132,-0.9878,0.0482
1061454,0.0132,-0.9878,0.0482
1061470,0.0132,-0.9877,0.0482
1061505,0.0133,-0.9877,0.0483
1061517,0.0133,-0.9875,0.0485
1061533,0.0134,-0.9875,0.0486
1061551,0.0133,-0.9875,0.0486
1061567,0.0133,-0.9875,0.0487
1061583,0.0133,-0.9874,0.0487
1061599,0.0132,-0.9874,0.0487
1061617,0.0132,-0.9875,0.0487
1061633,0.0131,-0.9875,0.0486
1061643,0.0131,-0.9875,0.0486
1061659,0.0131,-0.9875,0.0486
1061698,0.0128,-0.9875,0.0486
1061726,0.0128,-0.9875,0.0486
1061742,0.0128,-0.9877,0.0486
1061755,0.0128,-0.9877,0.0486
1061773,0.0128,-0.9877,0.0486
1061789,0.0129,-0.9877,0.0486
1061805,0.0129,-0.9877,0.0486
1061821,0.0129,-0.9877,0.0486
1061832,0.0129,-0.9877,0.0486
1061845,0.0129,-0.9877,0.0487
1061855,0.0129,-0.9877,0.0487
1061871,0.0129,-0.9877,0.0487
1061887,0.0129,-0.9877,0.0487
1061923,0.0129,-0.9877,0.0487
1061938,0.0129,-0.9877,0.0487
1061954,0.0129,-0.9877,0.0487
1061970,0.0129,-0.9877,0.0486
1062005,0.0129,-0.9877,0.0485
1062019,0.0131,-0.9880,0.0481
1062038,0.0132,-0.9890,0.0459
1062057,0.0134,-0.9933,0.0339
1062073,0.0144,-0.9995,0.0154
1062089,0.0172,-1.0083,-0.0145
1062145,0.0393,-1.0216,-0.2112
1062163,0.0536,-1.0153,-0.2833
1062174,0.0576,-1.0127,-0.3198
1062190,0.0637,-1.0077,-0.3905
1062206,0.0670,-1.0035,-0.4550
1062224,0.0670,-1.0001,-0.5101
1062240,0.0643,-0.9983,-0.5542
1062258,0.0593,-0.9979,-0.5862
1062271,0.0531,-0.9974,-0.6041
1062342,0.0194,-0.9634,-0.4194
1062352,0.0088,-0.9572,-0.3645
1062368,-0.0017,-0.9467,-0.2360
1062384,-0.0111,-0.9404,-0.0890
1062410,-0.0212,-0.9419,0.1439
1062423,-0.0234,-0.9447,0.2195
1062439,-0.0264,-0.9528,0.3600
1062455,-0.0275,-0.9622,0.4796
1062468,-0.0275,-0.9714,0.5730
1062504,-0.0254,-0.9852,0.6727
1062520,-0.0234,-0.9882,0.6812
1062536,-0.0212,-0.9884,0.6665
1062554,-0.0187,-0.9861,0.6337
1062570,-0.0164,-0.9818,0.5879
1062586,-0.0142,-0.9767,0.5347
1062617,-0.0106,-0.9666,0.4241
1062627,-0.0098,-0.9646,0.3982
1062643,-0.0082,-0.9615,0.3505
1062659,-0.0067,-0.9600,0.3094
1062669,-0.0061,-0.9597,0.2917
1062685,-0.0048,-0.9609,0.2612
1062713,-0.0024,-0.9697,0.2147
1062729,-0.0012,-0.9761,0.1954
1062745,0.0002,-0.9823,0.1771
1062756,0.0011,-0.9849,0.1680
1062766,0.0020,-0.9868,0.1588
1062778,0.0038,-0.9890,0.1400
1062794,0.0055,-0.9888,0.1210
1062809,0.0063,-0.9879,0.1116
1062827,0.0084,-0.9838,0.0839
1062842,0.0089,-0.9822,0.0751
1062858,0.0098,-0.9789,0.0587
1062876,0.0106,-0.9752,0.0380
1062913,0.0112,-0.9739,0.0192
1062954,0.0111,-0.9774,0.0129
1062963,0.0110,-0.9786,0.0139
1062978,0.0107,-0.9811,0.0176
1062995,0.0105,-0.9835,0.0231
1063009,0.0101,-0.9858,0.0300
1063027,0.0098,-0.9877,0.0374
1063043,0.0094,-0.9891,0.0447
1063059,0.0092,-0.9901,0.0511
1063078,0.0089,-0.9906,0.0566
1063130,0.0087,-0.9896,0.0641
1063141,0.0087,-0.9893,0.0638
1063159,0.0088,-0.9885,0.0626
1063175,0.0089,-0.9879,0.0608
1063191,0.0089,-0.9874,0.0587
1063207,0.0090,-0.9871,0.0566
1063251,0.0092,-0.9868,0.0525
1063267,0.0093,-0.9869,0.0515
1063280,0.0093,-0.9871,0.0510
1063328,0.0093,-0.9877,0.0514
1063344,0.0092,-0.9879,0.0519
1063354,0.0092,-0.9879,0.0521
1063370,0.0092,-0.9880,0.0527
1063386,0.0090,-0.9880,0.0533
1063402,0.0090,-0.9880,0.0538
1063420,0.0090,-0.9879,0.0542
1063436,0.0090,-0.9879,0.0544
1063447,0.0090,-0.9878,0.0544
1063463,0.0092,-0.9877,0.0546
1063481,0.0092,-0.9875,0.0546
1063491,0.0092,-0.9874,0.0544
1063505,0.0093,-0.9873,0.0544
1063521,0.0093,-0.9873,0.0542
1063552,0.0093,-0.9872,0.0538
1063578,0.0093,-0.9871,0.0537
1063594,0.0093,-0.9872,0.0536
1063610,0.0093,-0.9872,0.0535
1063628,0.0093,-0.9873,0.0535
1063644,0.0093,-0.9874,0.0536
1063660,0.0093,-0.9874,0.0536
1063676,0.0093,-0.9875,0.0537
1063712,0.0092,-0.9877,0.0540
1063728,0.0092,-0.9877,0.0541
1063744,0.0092,-0.9877,0.0541
1063755,0.0092,-0.9875,0.0541
1063765,0.0092,-0.9875,0.0541
1063781,0.0090,-0.9875,0.0541
1063793,0.0090,-0.9875,0.0541
1063809,0.0090,-0.9874,0.0540
1063827,0.0090,-0.9874,0.0538
1063858,0.0092,-0.9874,0.0537
1063874,0.0092,-0.9874,0.0537
1063892,0.0093,-0.9874,0.0537
1063902,0.0093,-0.9874,0.0537
1063918,0.0094,-0.9874,0.0537
1063933,0.0094,-0.9874,0.0537
1063949,0.0094,-0.9874,0.0537
1063977,0.0094,-0.9874,0.0537
1063991,0.0094,-0.9874,0.0536
1064006,0.0093,-0.9875,0.0532
1064017,0.0094,-0.9890,0.0507
1064026,0.0096,-0.9911,0.0477
1064042,0.0112,-0.9988,0.0355
1064055,0.0127,-1.0040,0.0251
1064070,0.0172,-1.0148,-0.0063
1064089,0.0237,-1.0214,-0.0824
1064107,0.0361,-1.0204,-0.1499
1064123,0.0443,-1.0165,-0.2268
1064165,0.0568,-1.0055,-0.4244
1064207,0.0591,-0.9919,-0.5721
1064223,0.0576,-0.9855,-0.6040
1064241,0.0538,-0.9781,-0.6133
1064257,0.0469,-0.9695,-0.5944
1064273,0.0372,-0.9597,-0.5432
1064289,0.0259,-0.9501,-0.4581
1064302,0.0199,-0.9459,-0.3409
1064342,-0.0094,-0.9423,-0.0427
1064358,-0.0190,-0.9489,0.1177
1064376,-0.0266,-0.9574,0.3403
1064392,-0.0317,-0.9659,0.4049
1064403,-0.0347,-0.9734,0.5144
1064421,-0.0356,-0.9792,0.5946
1064430,-0.0354,-0.9814,0.6233
1064443,-0.0334,-0.9841,0.6576
1064475,-0.0259,-0.9835,0.6459
1064491,-0.0237,-0.9811,0.6094
1064501,-0.0192,-0.9797,0.5858
1064519,-0.0149,-0.9767,0.5316
1064533,-0.0110,-0.9733,0.4727
1064547,-0.0092,-0.9717,0.4427
1064580,-0.0029,-0.9670,0.3315
1064595,-0.0004,-0.9669,0.2841
1064610,0.0018,-0.9686,0.2432
1064628,0.0035,-0.9720,0.2086
1064644,0.0050,-0.9766,0.1797
1064660,0.0063,-0.9810,0.1554
1064671,0.0070,-0.9828,0.1447
1064689,0.0087,-0.9856,0.1172
1064705,0.0095,-0.9852,0.1018
1064723,0.0101,-0.9836,0.0886
1064739,0.0106,-0.9814,0.0774
1064795,0.0114,-0.9755,0.0508
1064808,0.0114,-0.9753,0.0483
1064818,0.0114,-0.9753,0.0463
1064834,0.0114,-0.9761,0.0428
1064850,0.0114,-0.9774,0.0405
1064866,0.0114,-0.9792,0.0393
1064884,0.0112,-0.9813,0.0391
1064900,0.0112,-0.9834,0.0398
1064916,0.0112,-0.9854,0.0414
1064926,0.0112,-0.9871,0.0437
1064937,0.0112,-0.9877,0.0452
1064963,0.0111,-0.9893,0.0497
1064977,0.0110,-0.9897,0.0527
1064992,0.0109,-0.9900,0.0555
1065014,0.0109,-0.9899,0.0579
1065028,0.0107,-0.9895,0.0597
1065044,0.0107,-0.9890,0.0609
1065086,0.0106,-0.9877,0.0619
1065096,0.0106,-0.9874,0.0618
1065112,0.0106,-0.9871,0.0614
1065137,0.0106,-0.9866,0.0604
1065153,0.0106,-0.9865,0.0597
1065200,0.0107,-0.9865,0.0580
1065216,0.0107,-0.9865,0.0576
1065226,0.0109,-0.9866,0.0575
1065242,0.0109,-0.9867,0.0574
1065258,0.0109,-0.9868,0.0574
1065269,0.0109,-0.9868,0.0574
1065287,0.0110,-0.9871,0.0575
1065303,0.0110,-0.9871,0.0577
1065319,0.0111,-0.9872,0.0579
1065337,0.0111,-0.9872,0.0581
1065386,0.0111,-0.9873,0.0585
1065412,0.0111,-0.9873,0.0586
1065422,0.0111,-0.9873,0.0587
1065438,0.0111,-0.9873,0.0587
1065454,0.0110,-0.9872,0.0588
1065470,0.0110,-0.9872,0.0588
1065488,0.0110,-0.9871,0.0588
1065504,0.0110,-0.9871,0.0587
1065520,0.0109,-0.9869,0.0587
1065538,0.0109,-0.9868,0.0586
1065574,0.0107,-0.9867,0.0583
1065585,0.0107,-0.9867,0.0582
1065601,0.0107,-0.9867,0.0582
1065619,0.0107,-0.9867,0.0581
1065635,0.0107,-0.9867,0.0581
1065651,0.0107,-0.9867,0.0582
1065667,0.0109,-0.9868,0.0583
1065685,0.0109,-0.9868,0.0585
1065739,0.0111,-0.9869,0.0588
1065770,0.0111,-0.9869,0.0588
1065786,0.0111,-0.9869,0.0588
1065802,0.0111,-0.9869,0.0587
1065812,0.0111,-0.9869,0.0587
1065828,0.0111,-0.9869,0.0586
1065844,0.0111,-0.9869,0.0585
1065860,0.0110,-0.9869,0.0585
1065878,0.0110,-0.9869,0.0582
1065893,0.0110,-0.9869,0.0582
1065904,0.0109,-0.9869,0.0581
1065920,0.0109,-0.9869,0.0581
1065936,0.0109,-0.9869,0.0581
1065948,0.0109,-0.9871,0.0581
1065960,0.0109,-0.9871,0.0581
1065973,0.0109,-0.9871,0.0581
1065989,0.0109,-0.9871,0.0582
1066043,0.0117,-0.9926,0.0497
1066058,0.0139,-1.0013,0.0345
1066071,0.0156,-1.0067,0.0222
1066087,0.0206,-1.0166,-0.0143
1066101,0.0273,-1.0225,-0.0674
1066116,0.0355,-1.0236,-0.1351
1066135,0.0441,-1.0214,-0.2125
1066151,0.0520,-1.0172,-0.2938
1066162,0.0553,-1.0148,-0.3342
1066178,0.0604,-1.0096,-0.4117
1066189,0.0631,-1.0042,-0.4806
1066234,0.0555,-0.9777,-0.5740
1066250,0.0455,-0.9612,-0.5609
1066260,0.0392,-0.9532,-0.5408
1066276,0.0242,-0.9410,-0.4734
1066292,0.0081,-0.9362,-0.3741
1066344,-0.0302,-0.9481,0.0233
1066354,-0.0364,-0.9550,0.1593
1066365,-0.0380,-0.9585,0.2234
1066381,-0.0387,-0.9655,0.3394
1066397,-0.0364,-0.9717,0.4348
1066456,-0.0173,-0.9828,0.5798
1066465,-0.0144,-0.9827,0.5779
1066485,-0.0068,-0.9806,0.5468
1066500,-0.0049,-0.9795,0.5298
1066516,-0.0018,-0.9768,0.4889
1066527,0.0001,-0.9738,0.4429
1066545,0.0009,-0.9712,0.3958
1066561,0.0009,-0.9696,0.3501
1066571,0.0007,-0.9694,0.3284
1066587,0.0000,-0.9702,0.2877
1066603,-0.0009,-0.9729,0.2513
1066655,-0.0013,-0.9857,0.1660
1066671,-0.0002,-0.9884,0.1438
1066681,0.0005,-0.9889,0.1240
1066697,0.0021,-0.9885,0.1151
1066713,0.0039,-0.9867,0.0990
1066729,0.0056,-0.9840,0.0852
1066747,0.0079,-0.9797,0.0690
1066763,0.0087,-0.9774,0.0608
1066773,0.0098,-0.9764,0.0574
1066789,0.0105,-0.9753,0.0518
1066805,0.0109,-0.9751,0.0476
1066837,0.0107,-0.9768,0.0433
1066850,0.0106,-0.9777,0.0431
1066866,0.0101,-0.9796,0.0436
1066876,0.0099,-0.9806,0.0443
1066892,0.0094,-0.9827,0.0465
1066908,0.0089,-0.9846,0.0496
1066940,0.0081,-0.9877,0.0571
1066950,0.0078,-0.9882,0.0591
1066966,0.0076,-0.9889,0.0627
1066976,0.0074,-0.9893,0.0659
1066992,0.0073,-0.9893,0.0673
1067008,0.0073,-0.9891,0.0692
1067037,0.0074,-0.9884,0.0712
1067053,0.0076,-0.9878,0.0710
1067069,0.0077,-0.9873,0.0706
1067079,0.0077,-0.9871,0.0702
1067095,0.0078,-0.9867,0.0693
1067110,0.0079,-0.9863,0.0684
1067126,0.0081,-0.9861,0.0674
1067137,0.0081,-0.9860,0.0669
1067150,0.0081,-0.9858,0.0662
1067166,0.0081,-0.9858,0.0656
1067189,0.0081,-0.9858,0.0652
1067205,0.0081,-0.9860,0.0651
1067261,0.0082,-0.9866,0.0659
1067295,0.0082,-0.9868,0.0665
1067305,0.0082,-0.9869,0.0668
1067320,0.0083,-0.9869,0.0669
1067336,0.0083,-0.9871,0.0670
1067352,0.0083,-0.9871,0.0671
1067365,0.0083,-0.9871,0.0671
1067375,0.0083,-0.9871,0.0671
1067386,0.0083,-0.9871,0.0670
1067402,0.0083,-0.9869,0.0670
1067418,0.0083,-0.9869,0.0669
1067429,0.0083,-0.9868,0.0668
1067470,0.0082,-0.9866,0.0664
1067486,0.0081,-0.9866,0.0663
1067504,0.0081,-0.9865,0.0662
1067520,0.0081,-0.9865,0.0662
1067536,0.0081,-0.9865,0.0662
1067552,0.0081,-0.9865,0.0662
1067570,0.0081,-0.9865,0.0662
1067595,0.0079,-0.9865,0.0662
1067605,0.0079,-0.9866,0.0662
1067619,0.0079,-0.9866,0.0663
1067656,0.0078,-0.9866,0.0665
1067672,0.0078,-0.9866,0.0667
1067688,0.0077,-0.9867,0.0669
1067706,0.0077,-0.9867,0.0670
1067722,0.0077,-0.9867,0.0670
1067738,0.0077,-0.9868,0.0671
1067749,0.0077,-0.9868,0.0671
1067767,0.0078,-0.9868,0.0671
1067783,0.0078,-0.9868,0.0671
1067799,0.0079,-0.9867,0.0670
1067810,0.0079,-0.9867,0.0670
1067846,0.0081,-0.9866,0.0669
1067862,0.0081,-0.9865,0.0668
1067874,0.0081,-0.9865,0.0668
1067912,0.0079,-0.9866,0.0652
1067922,0.0078,-0.9871,0.0638
1067938,0.0078,-0.9907,0.0579
1067954,0.0079,-0.9985,0.0441
1067970,0.0089,-1.0089,0.0187
1067988,0.0111,-1.0177,-0.0211
1068004,0.0155,-1.0215,-0.0756
1068014,0.0186,-1.0215,-0.1078
1068025,0.0223,-1.0205,-0.1428
1068041,0.0314,-1.0166,-0.2185
1068070,0.0511,-1.0045,-0.3763
1068086,0.0585,-0.9974,-0.4476
1068102,0.0623,-0.9890,-0.5046
1068111,0.0626,-0.9840,-0.5254
1068128,0.0596,-0.9714,-0.5460
1068144,0.0516,-0.9568,-0.5327
1068160,0.0394,-0.9424,-0.4803
1068180,0.0244,-0.9319,-0.3892
1068214,-0.0065,-0.9314,-0.1180
1068225,-0.0197,-0.9395,0.0385
1068278,-0.0417,-0.9722,0.4476
1068294,-0.0421,-0.9803,0.5358
1068304,-0.0413,-0.9834,0.5682
1068320,-0.0377,-0.9872,0.6100
1068331,-0.0325,-0.9880,0.6227
1068347,-0.0264,-0.9865,0.6101
1068365,-0.0200,-0.9833,0.5779
1068378,-0.0170,-0.9813,0.5562
1068394,-0.0110,-0.9772,0.5051
1068410,-0.0057,-0.9735,0.4484
1068471,0.0055,-0.9709,0.2412
1068480,0.0059,-0.9722,0.2219
1068493,0.0061,-0.9736,0.2042
1068525,0.0066,-0.9799,0.1482
1068541,0.0067,-0.9819,0.1274
1068551,0.0067,-0.9824,0.1104
1068567,0.0068,-0.9821,0.1030
1068583,0.0070,-0.9807,0.0905
1068599,0.0072,-0.9789,0.0804
1068617,0.0077,-0.9762,0.0693
1068635,0.0079,-0.9749,0.0643
1068651,0.0082,-0.9742,0.0609
1068667,0.0084,-0.9745,0.0590
1068704,0.0087,-0.9767,0.0591
1068716,0.0088,-0.9785,0.0609
1068731,0.0088,-0.9794,0.0621
1068749,0.0087,-0.9823,0.0668
1068765,0.0085,-0.9841,0.0702
1068780,0.0085,-0.9849,0.0719
1068796,0.0084,-0.9861,0.0752
1068837,0.0081,-0.9877,0.0817
1068868,0.0079,-0.9875,0.0841
1068881,0.0078,-0.9872,0.0844
1068897,0.0078,-0.9867,0.0841
1068915,0.0078,-0.9862,0.0835
1068931,0.0079,-0.9857,0.0826
1068947,0.0079,-0.9854,0.0817
1068963,0.0081,-0.9851,0.0807
1068981,0.0082,-0.9849,0.0798
1068997,0.0082,-0.9849,0.0791
1069013,0.0083,-0.9849,0.0786
1069024,0.0083,-0.9849,0.0784
1069042,0.0083,-0.9850,0.0781
1069056,0.0083,-0.9851,0.0781
1069072,0.0083,-0.9854,0.0782
1069088,0.0083,-0.9855,0.0785
1069125,0.0083,-0.9856,0.0791
1069156,0.0083,-0.9857,0.0795
1069177,0.0083,-0.9856,0.0797
1069193,0.0083,-0.9856,0.0798
1069209,0.0083,-0.9855,0.0798
1069225,0.0083,-0.9854,0.0798
1069235,0.0083,-0.9854,0.0798
1069254,0.0082,-0.9854,0.0797
1069270,0.0082,-0.9854,0.0797
1069286,0.0082,-0.9854,0.0797
1069331,0.0082,-0.9855,0.0796
1069346,0.0082,-0.9855,0.0796
1069357,0.0083,-0.9855,0.0796
1069367,0.0083,-0.9855,0.0796
1069383,0.0083,-0.9855,0.0796
1069396,0.0084,-0.9855,0.0796
1069412,0.0084,-0.9855,0.0797
1069430,0.0084,-0.9855,0.0797
1069465,0.0083,-0.9855,0.0797
1069476,0.0083,-0.9856,0.0797
1069525,0.0082,-0.9856,0.0796
1069541,0.0081,-0.9856,0.0795
1069559,0.0081,-0.9856,0.0793
1069575,0.0081,-0.9856,0.0792
1069591,0.0081,-0.9857,0.0791
1069607,0.0081,-0.9858,0.0787
1069624,0.0082,-0.9860,0.0779
1069640,0.0082,-0.9874,0.0752
1069651,0.0079,-0.9923,0.0677
1069666,0.0076,-0.9967,0.0608
1069676,0.0059,-1.0081,0.0375
1069705,0.0016,-1.0222,-0.0259
1069721,-0.0009,-1.0247,-0.0872
1069737,-0.0016,-1.0231,-0.1603
1069770,0.0055,-1.0155,-0.3224
1069786,0.0129,-1.0100,-0.4016
1069802,0.0217,-1.0039,-0.4733
1069812,0.0262,-1.0012,-0.5048
1069828,0.0352,-0.9972,-0.5575
1069844,0.0431,-0.9944,-0.5955
1069860,0.0497,-0.9902,-0.6161
1069899,0.0530,-0.9690,-0.5652
1069912,0.0505,-0.9633,-0.5331
1069928,0.0422,-0.9513,-0.4447
1069946,0.0240,-0.9369,-0.2570
1069961,0.0171,-0.9341,-0.1829
1069977,0.0031,-0.9325,-0.0248
1069988,-0.0099,-0.9360,0.1371
1070004,-0.0210,-0.9435,0.2915
1070014,-0.0255,-0.9480,0.3627
1070030,-0.0323,-0.9575,0.4875
1070069,-0.0364,-0.9763,0.6735
1070100,-0.0319,-0.9812,0.6960
1070116,-0.0275,-0.9814,0.6801
1070130,-0.0225,-0.9797,0.6451
1070141,-0.0200,-0.9783,0.6224
1070157,-0.0149,-0.9744,0.5698
1070173,-0.0103,-0.9700,0.5123
1070189,-0.0061,-0.9658,0.4546
1070207,-0.0031,-0.9623,0.4001
1070223,-0.0010,-0.9602,0.3514
1070239,0.0001,-0.9596,0.3098
1070255,0.0006,-0.9600,0.2756
1070266,0.0010,-0.9611,0.2490
1070279,0.0010,-0.9618,0.2382
1070290,0.0010,-0.9639,0.2207
1070306,0.0010,-0.9652,0.2073
1070322,0.0010,-0.9688,0.2017
1070375,0.0029,-0.9830,0.1625
1070413,0.0062,-0.9846,0.1263
1070423,0.0068,-0.9840,0.1187
1070439,0.0081,-0.9822,0.1035
1070455,0.0090,-0.9802,0.0894
1070471,0.0099,-0.9784,0.0768
1070489,0.0105,-0.9769,0.0663
1070535,0.0103,-0.9757,0.0510
1070551,0.0100,-0.9762,0.0496
1070561,0.0096,-0.9774,0.0509
1070576,0.0095,-0.9783,0.0524
1070592,0.0094,-0.9800,0.0568
1070603,0.0092,-0.9817,0.0623
1070619,0.0088,-0.9834,0.0682
1070628,0.0085,-0.9843,0.0710
1070645,0.0081,-0.9856,0.0763
1070661,0.0077,-0.9867,0.0806
1070677,0.0076,-0.9873,0.0835
1070708,0.0077,-0.9879,0.0854
1070739,0.0084,-0.9879,0.0842
1070755,0.0089,-0.9878,0.0828
1070771,0.0096,-0.9874,0.0813
1070781,0.0101,-0.9872,0.0806
1070797,0.0111,-0.9868,0.0797
1070813,0.0120,-0.9863,0.0795
1070829,0.0125,-0.9858,0.0800
1070847,0.0126,-0.9855,0.0809
1070863,0.0125,-0.9851,0.0820
1070879,0.0120,-0.9849,0.0830
1070890,0.0115,-0.9847,0.0834
1070908,0.0107,-0.9847,0.0831
1070921,0.0104,-0.9847,0.0824
1070935,0.0098,-0.9847,0.0819
1070951,0.0093,-0.9849,0.0807
1070988,0.0085,-0.9855,0.0784
1071019,0.0087,-0.9857,0.0780
1071037,0.0089,-0.9860,0.0782
1071052,0.0090,-0.9860,0.0784
1071068,0.0093,-0.9860,0.0786
1071084,0.0095,-0.9860,0.0789
1071102,0.0098,-0.9858,0.0792
1071118,0.0099,-0.9858,0.0795
1071136,0.0101,-0.9857,0.0797
1071152,0.0103,-0.9857,0.0797
1071163,0.0103,-0.9857,0.0797
1071192,0.0095,-0.9856,0.0789
1071208,0.0092,-0.9855,0.0786
1071224,0.0084,-0.9854,0.0780
1071234,0.0078,-0.9852,0.0776
1071250,0.0073,-0.9851,0.0776
1071265,0.0072,-0.9851,0.0778
1071281,0.0073,-0.9851,0.0781
1071335,0.0093,-0.9857,0.0800
1071347,0.0096,-0.9858,0.0801
1071400,0.0115,-0.9858,0.0819
1071416,0.0117,-0.9856,0.0828
1071431,0.0120,-0.9855,0.0836
1071447,0.0120,-0.9854,0.0845
1071462,0.0120,-0.9854,0.0848
1071478,0.0117,-0.9852,0.0852
1071488,0.0114,-0.9852,0.0850
1071499,0.0111,-0.9852,0.0845
1071515,0.0106,-0.9852,0.0831
1071531,0.0100,-0.9854,0.0811
1071582,0.0089,-0.9949,0.0626
1071615,0.0116,-1.0182,0.0092
1071625,0.0132,-1.0227,-0.0132
1071640,0.0178,-1.0270,-0.0691
1071656,0.0239,-1.0259,-0.1381
1071672,0.0308,-1.0208,-0.2151
1071690,0.0371,-1.0121,-0.2933
1071706,0.0417,-0.9998,-0.3639
1071722,0.0431,-0.9845,-0.4164
1071738,0.0404,-0.9680,-0.4406
1071777,0.0189,-0.9393,-0.3385
1071793,0.0077,-0.9374,-0.2374
1071809,-0.0031,-0.9404,-0.1145
1071822,-0.0079,-0.9435,-0.0485
1071838,-0.0160,-0.9515,0.0857
1071854,-0.0216,-0.9607,0.2136
1071870,-0.0247,-0.9695,0.3263
1071880,-0.0251,-0.9734,0.3749
1071896,-0.0244,-0.9796,0.4534
1071940,-0.0128,-0.9846,0.5337
1071950,-0.0101,-0.9839,0.5271
1071960,-0.0073,-0.9828,0.5160
1071976,-0.0021,-0.9805,0.4824
1071992,0.0027,-0.9780,0.4374
1072008,0.0066,-0.9757,0.3853
1072037,0.0117,-0.9725,0.2755
1072052,0.0125,-0.9722,0.2495
1072068,0.0132,-0.9720,0.2012
1072086,0.0135,-0.9735,0.1409
1072102,0.0134,-0.9751,0.1099
1072113,0.0129,-0.9761,0.0972
1072128,0.0122,-0.9780,0.0769
1072146,0.0112,-0.9797,0.0630
1072164,0.0103,-0.9813,0.0543
1072180,0.0092,-0.9824,0.0498
1072196,0.0082,-0.9834,0.0486
1072250,0.0056,-0.9850,0.0583
1072265,0.0055,-0.9851,0.0607
1072275,0.0054,-0.9854,0.0654
1072290,0.0055,-0.9854,0.0679
1072306,0.0056,-0.9855,0.0725
1072322,0.0061,-0.9856,0.0765
1072342,0.0070,-0.9856,0.0815
1072358,0.0076,-0.9856,0.0840
1072370,0.0079,-0.9856,0.0848
1072385,0.0085,-0.9856,0.0863
1072450,0.0099,-0.9856,0.0867
1072464,0.0100,-0.9856,0.0858
1072474,0.0100,-0.9856,0.0854
1072500,0.0099,-0.9856,0.0840
1072509,0.0099,-0.9856,0.0835
1072550,0.0094,-0.9856,0.0817
1072563,0.0093,-0.9856,0.0813
1072574,0.0092,-0.9856,0.0812
1072590,0.0089,-0.9856,0.0811
1072606,0.0088,-0.9856,0.0812
1072655,0.0088,-0.9854,0.0817
1072670,0.0088,-0.9854,0.0819
1072688,0.0088,-0.9854,0.0820
1072704,0.0088,-0.9854,0.0822
1072720,0.0088,-0.9855,0.0822
1072736,0.0088,-0.9855,0.0823
1072754,0.0088,-0.9855,0.0822
1072770,0.0088,-0.9856,0.0820
1072780,0.0088,-0.9856,0.0818
1072791,0.0084,-0.9865,0.0803
1072807,0.0079,-0.9879,0.0786
1072836,-0.0010,-1.0055,0.0527
1072868,-0.0222,-1.0251,-0.0233
1072878,-0.0286,-1.0269,-0.0514
1072894,-0.0417,-1.0265,-0.1163
1072910,-0.0549,-1.0229,-0.1892
1072926,-0.0677,-1.0172,-0.2651
1072944,-0.0806,-1.0105,-0.3400
1072960,-0.0934,-1.0048,-0.4091
1072972,-0.1060,-1.0005,-0.4680
1072983,-0.1118,-0.9984,-0.4923
1072999,-0.1229,-0.9927,-0.5272
1073028,-0.1376,-0.9794,-0.5353
1073044,-0.1448,-0.9683,-0.5042
1073060,-0.1481,-0.9567,-0.4406
1073070,-0.1458,-0.9463,-0.3447
1073086,-0.1422,-0.9420,-0.2211
1073097,-0.1301,-0.9357,-0.1512
1073113,-0.1122,-0.9333,-0.0023
1073131,-0.0895,-0.9352,0.1495
1073169,-0.0219,-0.9539,0.4729
1073188,0.0059,-0.9625,0.5593
1073217,0.0431,-0.9730,0.6327
1073233,0.0631,-0.9779,0.6458
1073249,0.0782,-0.9807,0.6340
1073259,0.0885,-0.9817,0.6024
1073274,0.0918,-0.9817,0.5811
1073290,0.0951,-0.9807,0.5305
1073306,0.0944,-0.9789,0.4742
1073324,0.0908,-0.9764,0.3896
1073340,0.0850,-0.9739,0.3633
1073356,0.0776,-0.9714,0.3154
1073372,0.0695,-0.9697,0.2747
1073430,0.0397,-0.9731,0.1818
1073442,0.0325,-0.9758,0.1647
1073482,0.0194,-0.9794,0.1288
1073498,0.0157,-0.9791,0.1158
1073516,0.0128,-0.9785,0.1036
1073532,0.0103,-0.9778,0.0922
1073548,0.0083,-0.9772,0.0818
1073564,0.0067,-0.9771,0.0726
1073582,0.0056,-0.9774,0.0651
1073593,0.0052,-0.9777,0.0619
1073609,0.0050,-0.9786,0.0570
1073625,0.0052,-0.9797,0.0541
1073673,0.0074,-0.9836,0.0557
1073688,0.0083,-0.9849,0.0588
1073706,0.0092,-0.9857,0.0629
1073722,0.0099,-0.9865,0.0673
1073738,0.0104,-0.9868,0.0718
1073771,0.0112,-0.9872,0.0795
1073784,0.0114,-0.9871,0.0824
1073794,0.0115,-0.9869,0.0835
1073810,0.0116,-0.9867,0.0851
1073826,0.0116,-0.9865,0.0859
1073862,0.0115,-0.9858,0.0853
1073878,0.0114,-0.9856,0.0842
1073894,0.0112,-0.9855,0.0830
1073912,0.0111,-0.9854,0.0817
1073928,0.0110,-0.9854,0.0803
1073944,0.0109,-0.9855,0.0790
1073960,0.0109,-0.9861,0.0773
1073978,0.0110,-0.9885,0.0734
1073991,0.0115,-0.9951,0.0641
1074002,0.0120,-1.0000,0.0562
1074018,0.0134,-1.0112,0.0314
1074034,0.0157,-1.0209,-0.0076
1074063,0.0240,-1.0253,-0.1271
1074104,0.0406,-1.0139,-0.3176
1074114,0.0443,-1.0106,-0.3553
1074130,0.0509,-1.0037,-0.4253
1074146,0.0558,-0.9972,-0.4834
1074162,0.0575,-0.9913,-0.5242
1074179,0.0558,-0.9861,-0.5426
1074196,0.0507,-0.9812,-0.5355
1074206,0.0471,-0.9785,-0.5217
1074222,0.0381,-0.9718,-0.4731
1074238,0.0276,-0.9634,-0.3965
1074267,0.0106,-0.9506,-0.1713
1074283,-0.0006,-0.9456,-0.1013
1074299,-0.0110,-0.9451,0.0402
1074309,-0.0199,-0.9484,0.1802
1074325,-0.0237,-0.9539,0.3093
1074341,-0.0295,-0.9569,0.4297
1074352,-0.0331,-0.9636,0.4663
1074370,-0.0344,-0.9697,0.5400
1074404,-0.0308,-0.9771,0.6074
1074415,-0.0288,-0.9779,0.6047
1074424,-0.0240,-0.9777,0.5959
1074472,-0.0107,-0.9724,0.5015
1074488,-0.0062,-0.9695,0.4515
1074513,-0.0010,-0.9652,0.3770
1074522,0.0015,-0.9629,0.3324
1074538,0.0024,-0.9623,0.2943
1074554,0.0039,-0.9622,0.2777
1074567,0.0045,-0.9641,0.2493
1074583,0.0046,-0.9684,0.2257
1074599,0.0048,-0.9742,0.2061
1074617,0.0050,-0.9808,0.1886
1074657,0.0068,-0.9908,0.1484
1074669,0.0072,-0.9910,0.1404
1074708,0.0094,-0.9849,0.1019
1074718,0.0099,-0.9830,0.0951
1074734,0.0107,-0.9792,0.0823
1074750,0.0114,-0.9760,0.0712
1074766,0.0118,-0.9736,0.0621
1074784,0.0122,-0.9724,0.0553
1074800,0.0125,-0.9723,0.0507
1074818,0.0123,-0.9740,0.0479
1074833,0.0123,-0.9750,0.0480
1074869,0.0118,-0.9808,0.0546
1074885,0.0116,-0.9832,0.0591
1074901,0.0114,-0.9851,0.0642
1074919,0.0111,-0.9867,0.0692
1074935,0.0109,-0.9878,0.0740
1074951,0.0106,-0.9885,0.0781
1074967,0.0104,-0.9886,0.0814
1074978,0.0104,-0.9886,0.0828
1075018,0.0103,-0.9877,0.0856
1075028,0.0103,-0.9874,0.0854
1075044,0.0103,-0.9868,0.0848
1075073,0.0104,-0.9857,0.0823
1075089,0.0104,-0.9855,0.0808
1075105,0.0104,-0.9854,0.0792
1075115,0.0104,-0.9854,0.0784
1075131,0.0104,-0.9860,0.0758
1075147,0.0106,-0.9886,0.0704
1075163,0.0110,-0.9950,0.0591
1075180,0.0117,-1.0043,0.0376
1075196,0.0129,-1.0133,0.0029
1075212,0.0148,-1.0184,-0.0459
1075230,0.0177,-1.0194,-0.1072
1075266,0.0276,-1.0159,-0.2531
1075282,0.0345,-1.0125,-0.3289
1075317,0.0487,-1.0031,-0.4630
1075327,0.0542,-1.0002,-0.5144
1075343,0.0577,-0.9978,-0.5526
1075358,0.0587,-0.9961,-0.5660
1075374,0.0582,-0.9904,-0.5795
1075392,0.0503,-0.9766,-0.5560
1075407,0.0454,-0.9712,-0.5342
1075423,0.0333,-0.9607,-0.4673
1075434,0.0189,-0.9514,-0.3694
1075450,0.0043,-0.9448,-0.2446
1075497,-0.0223,-0.9446,0.1307
1075510,-0.0276,-0.9502,0.2795
1075528,-0.0300,-0.9572,0.4127
1075544,-0.0302,-0.9641,0.5229
1075560,-0.0284,-0.9700,0.6057
1075576,-0.0258,-0.9741,0.6593
1075587,-0.0242,-0.9755,0.6752
1075621,-0.0176,-0.9735,0.6597
1075639,-0.0131,-0.9697,0.6200
1075655,-0.0105,-0.9656,0.5693
1075696,-0.0063,-0.9573,0.4279
1075710,-0.0059,-0.9568,0.4011
1075728,-0.0050,-0.9586,0.3292
1075744,-0.0048,-0.9602,0.2893
1075760,-0.0043,-0.9642,0.2720
1075776,-0.0035,-0.9691,0.2419
1075794,-0.0024,-0.9761,0.2072
1075809,-0.0021,-0.9781,0.1976
1075825,-0.0011,-0.9813,0.1804
1075846,0.0006,-0.9834,0.1577
1075876,0.0038,-0.9811,0.1298
1075891,0.0046,-0.9799,0.1230
1075918,0.0074,-0.9755,0.0981
1075928,0.0081,-0.9746,0.0927
1075944,0.0092,-0.9733,0.0828
1075960,0.0099,-0.9729,0.0746
1075976,0.0104,-0.9733,0.0685
1075994,0.0105,-0.9744,0.0643
1076010,0.0105,-0.9761,0.0624
1076023,0.0103,-0.9780,0.0623
1076039,0.0101,-0.9791,0.0629
1076049,0.0098,-0.9812,0.0651
1076078,0.0090,-0.9840,0.0701
1076094,0.0087,-0.9855,0.0740
1076110,0.0083,-0.9866,0.0780
1076120,0.0082,-0.9871,0.0800
1076136,0.0079,-0.9877,0.0834
1076152,0.0078,-0.9880,0.0859
1076163,0.0079,-0.9899,0.0859
1076180,0.0090,-0.9957,0.0802
1076194,0.0101,-1.0005,0.0739
1076242,0.0281,-1.0248,-0.0394
1076273,0.0479,-1.0198,-0.1829
1076289,0.0565,-1.0170,-0.2629
1076305,0.0625,-1.0149,-0.3417
1076315,0.0642,-1.0137,-0.3792
1076331,0.0657,-1.0105,-0.4476
1076347,0.0643,-1.0056,-0.5035
1076363,0.0597,-0.9982,-0.5414
1076381,0.0519,-0.9884,-0.5552
1076397,0.0411,-0.9763,-0.5385
1076413,0.0289,-0.9630,-0.4871
1076429,0.0164,-0.9506,-0.3997
1076447,0.0043,-0.9413,-0.2802
1076458,-0.0063,-0.9373,-0.1371
1076469,-0.0110,-0.9374,-0.0602
1076485,-0.0189,-0.9410,0.0964
1076501,-0.0245,-0.9479,0.2472
1076588,-0.0233,-0.9785,0.6454
1076601,-0.0193,-0.9791,0.6398
1076617,-0.0151,-0.9780,0.6121
1076633,-0.0114,-0.9760,0.5676
1076649,-0.0081,-0.9735,0.5123
1076692,-0.0026,-0.9677,0.3618
1076707,-0.0012,-0.9658,0.3082
1076726,-0.0002,-0.9647,0.2621
1076742,0.0004,-0.9647,0.2242
1076758,0.0007,-0.9663,0.1942
1076774,0.0011,-0.9692,0.1713
1076792,0.0016,-0.9734,0.1536
1076808,0.0021,-0.9777,0.1399
1076843,0.0038,-0.9835,0.1189
1076853,0.0050,-0.9840,0.1099
1076863,0.0056,-0.9839,0.1055
1076879,0.0067,-0.9828,0.0969
1076895,0.0078,-0.9813,0.0887
1076911,0.0088,-0.9796,0.0812
1076940,0.0100,-0.9777,0.0709
1076956,0.0105,-0.9771,0.0654
1076972,0.0109,-0.9771,0.0612
1076982,0.0110,-0.9773,0.0594
1076998,0.0111,-0.9781,0.0573
1077014,0.0110,-0.9794,0.0566
1077027,0.0107,-0.9808,0.0573
1077045,0.0105,-0.9824,0.0590
1077061,0.0101,-0.9839,0.0615
1077071,0.0100,-0.9846,0.0630
1077087,0.0095,-0.9858,0.0664
1077103,0.0093,-0.9868,0.0698
1077132,0.0087,-0.9878,0.0759
1077167,0.0084,-0.9880,0.0793
1077177,0.0084,-0.9884,0.0791
1077188,0.0087,-0.9917,0.0754
1077202,0.0090,-0.9952,0.0712
1077219,0.0106,-1.0061,0.0549
1077235,0.0137,-1.0179,0.0261
1077245,0.0159,-1.0222,-0.0250
1077261,0.0216,-1.0259,-0.0447
1077279,0.0316,-1.0227,-0.1455
1077294,0.0352,-1.0208,-0.1836
1077331,0.0482,-1.0095,-0.3783
1077347,0.0510,-1.0035,-0.4463
1077363,0.0524,-0.9957,-0.5009
1077373,0.0521,-0.9910,-0.5211
1077389,0.0497,-0.9805,-0.5437
1077405,0.0443,-0.9705,-0.5376
1077421,0.0364,-0.9644,-0.5010
1077439,0.0271,-0.9640,-0.4368
1077470,0.0094,-0.9761,-0.2562
1077486,0.0032,-0.9827,-0.1555
1077550,-0.0068,-0.9752,0.2291
1077563,-0.0073,-0.9727,0.2708
1077573,-0.0079,-0.9702,0.3099
1077589,-0.0085,-0.9664,0.3799
1077605,-0.0087,-0.9640,0.4368
1077621,-0.0083,-0.9624,0.4790
1077641,-0.0071,-0.9615,0.5142
1077657,-0.0060,-0.9617,0.5195
1077673,-0.0046,-0.9620,0.5122
1077683,-0.0040,-0.9623,0.5044
1077732,0.0002,-0.9640,0.4199
1077771,0.0033,-0.9652,0.3359
1077781,0.0038,-0.9657,0.3208
1077797,0.0046,-0.9670,0.2931
1077809,0.0051,-0.9679,0.2804
1077825,0.0057,-0.9702,0.2567
1077843,0.0062,-0.9736,0.2350
1077859,0.0070,-0.9778,0.2144
1077875,0.0079,-0.9822,0.1940
1077885,0.0085,-0.9861,0.1738
1077901,0.0101,-0.9875,0.1638
1077930,0.0134,-0.9894,0.1250
1077946,0.0149,-0.9880,0.1069
1077962,0.0161,-0.9860,0.0905
1077972,0.0166,-0.9847,0.0830
1077988,0.0175,-0.9822,0.0695
1078004,0.0179,-0.9799,0.0580
1078020,0.0183,-0.9783,0.0491
1078038,0.0186,-0.9774,0.0427
1078086,0.0184,-0.9792,0.0387
1078096,0.0184,-0.9800,0.0400
1078128,0.0178,-0.9833,0.0491
1078144,0.0175,-0.9850,0.0544
1078160,0.0172,-0.9878,0.0583
1078170,0.0173,-0.9904,0.0588
1078186,0.0183,-0.9990,0.0541
1078201,0.0209,-1.0106,0.0380
1078217,0.0251,-1.0204,0.0074
1078235,0.0306,-1.0244,-0.0392
1078251,0.0366,-1.0240,-0.1003
1078267,0.0422,-1.0217,-0.1720
1078283,0.0471,-1.0181,-0.2488
1078322,0.0569,-1.0042,-0.4316
1078338,0.0599,-0.9996,-0.4904
1078354,0.0615,-0.9961,-0.5360
1078388,0.0577,-0.9929,-0.5780
1078404,0.0530,-0.9916,-0.5715
1078420,0.0469,-0.9882,-0.5460
1078433,0.0435,-0.9855,-0.5254
1078449,0.0355,-0.9775,-0.4674
1078465,0.0259,-0.9678,-0.3857
1078481,0.0146,-0.9578,-0.2803
1078491,0.0087,-0.9531,-0.2195
1078510,-0.0103,-0.9429,-0.0148
1078526,-0.0217,-0.9398,0.1301
1078542,-0.0312,-0.9404,0.2711
1078587,-0.0406,-0.9524,0.5541
1078610,-0.0365,-0.9602,0.6492
1078623,-0.0338,-0.9624,0.6783
1078639,-0.0275,-0.9662,0.6832
1078655,-0.0201,-0.9691,0.6753
1078686,-0.0051,-0.9723,0.6040
1078699,0.0010,-0.9729,0.5504
1078720,0.0057,-0.9731,0.4913
1078736,0.0092,-0.9729,0.4315
1078752,0.0114,-0.9724,0.3746
1078796,0.0129,-0.9673,0.2460
1078811,0.0126,-0.9662,0.2323
1078829,0.0115,-0.9641,0.2028
1078844,0.0110,-0.9640,0.1962
1078860,0.0103,-0.9651,0.1860
1078876,0.0098,-0.9678,0.1782
1078894,0.0096,-0.9736,0.1670
1078910,0.0098,-0.9757,0.1628
1078921,0.0103,-0.9792,0.1531
1078937,0.0110,-0.9817,0.1416
1078974,0.0127,-0.9832,0.1146
1079009,0.0149,-0.9814,0.0808
1079019,0.0153,-0.9811,0.0748
1079035,0.0159,-0.9803,0.0646
1079051,0.0162,-0.9800,0.0566
1079067,0.0166,-0.9800,0.0514
1079082,0.0167,-0.9803,0.0488
1079094,0.0167,-0.9806,0.0486
1079106,0.0167,-0.9810,0.0488
1079124,0.0166,-0.9824,0.0529
1079138,0.0165,-0.9829,0.0549
1079167,0.0159,-0.9850,0.0653
1079183,0.0156,-0.9857,0.0707
1079196,0.0155,-0.9861,0.0731
1079212,0.0153,-0.9866,0.0775
1079229,0.0151,-0.9869,0.0808
1079245,0.0150,-0.9874,0.0826
1079261,0.0151,-0.9891,0.0818
1079279,0.0156,-0.9945,0.0756
1079310,0.0194,-1.0142,0.0327
1079328,0.0232,-1.0208,-0.0090
1079339,0.0286,-1.0221,-0.0646
1079368,0.0393,-1.0188,-0.1672
1079384,0.0481,-1.0150,-0.2423
1079400,0.0570,-1.0100,-0.3173
1079410,0.0613,-1.0071,-0.3535
1079426,0.0685,-1.0018,-0.4207
1079442,0.0731,-0.9977,-0.4774
1079457,0.0742,-0.9930,-0.5197
1079473,0.0710,-0.9862,-0.5428
1079489,0.0636,-0.9772,-0.5427
1079503,0.0524,-0.9697,-0.5165
1079518,0.0388,-0.9672,-0.4639
1079530,0.0316,-0.9679,-0.4287
1079576,-0.0046,-0.9803,-0.1475
1079624,-0.0186,-0.9667,0.1732
1079634,-0.0189,-0.9631,0.2242
1079650,-0.0187,-0.9575,0.3197
1079661,-0.0182,-0.9558,0.3633
1079677,-0.0166,-0.9546,0.4401
1079695,-0.0145,-0.9556,0.5006
1079710,-0.0123,-0.9579,0.5435
1079725,-0.0104,-0.9608,0.5686
1079736,-0.0095,-0.9624,0.5748
1079750,-0.0081,-0.9657,0.5759
1079794,-0.0061,-0.9720,0.5255
1079810,-0.0052,-0.9733,0.4913
1079826,-0.0043,-0.9736,0.4532
1079841,-0.0031,-0.9730,0.4137
1079858,-0.0016,-0.9717,0.3749
1079874,0.0000,-0.9702,0.3379
1079892,0.0016,-0.9692,0.3036
1079927,0.0049,-0.9696,0.2432
1079937,0.0067,-0.9711,0.2168
1079949,0.0076,-0.9720,0.2043
1079978,0.0112,-0.9756,0.1594
1079994,0.0127,-0.9766,0.1395
1080009,0.0134,-0.9768,0.1302
1080019,0.0145,-0.9769,0.1133
1080035,0.0155,-0.9768,0.0985
1080050,0.0159,-0.9767,0.0920
1080066,0.0165,-0.9766,0.0809
1080084,0.0168,-0.9768,0.0690
1080099,0.0170,-0.9769,0.0663
1080112,0.0170,-0.9777,0.0625
1080128,0.0168,-0.9785,0.0610
1080138,0.0167,-0.9791,0.0609
1080168,0.0162,-0.9816,0.0646
1080184,0.0159,-0.9829,0.0679
1080200,0.0156,-0.9841,0.0714
1080233,0.0157,-0.9899,0.0737
1080249,0.0171,-0.9983,0.0663
1080265,0.0203,-1.0093,0.0476
1080278,0.0226,-1.0145,0.0330
1080294,0.0286,-1.0220,-0.0081
1080310,0.0364,-1.0243,-0.0641
1080326,0.0453,-1.0231,-0.1327
1080336,0.0498,-1.0215,-0.1703
1080346,0.0582,-1.0168,-0.2488
1080362,0.0619,-1.0139,-0.3265
1080378,0.0676,-1.0076,-0.3635
1080394,0.0710,-1.0017,-0.4310
1080423,0.0684,-0.9877,-0.5229
1080439,0.0609,-0.9775,-0.5352
1080455,0.0494,-0.9656,-0.5165
1080465,0.0424,-0.9592,-0.4941
1080481,0.0264,-0.9475,-0.4226
1080497,0.0096,-0.9392,-0.3182
1080546,-0.0287,-0.9445,0.1075
1080594,-0.0354,-0.9695,0.4803
1080605,-0.0337,-0.9729,0.5217
1080628,-0.0255,-0.9799,0.6028
1080641,-0.0187,-0.9813,0.6218
1080657,-0.0150,-0.9813,0.6219
1080673,-0.0081,-0.9797,0.6061
1080689,-0.0017,-0.9771,0.5734
1080699,0.0034,-0.9736,0.5289
1080714,0.0055,-0.9718,0.5040
1080730,0.0084,-0.9683,0.4519
1080746,0.0103,-0.9653,0.4000
1080801,0.0094,-0.9659,0.2542
1080810,0.0088,-0.9681,0.2389
1080842,0.0078,-0.9791,0.1877
1080855,0.0081,-0.9838,0.1667
1080867,0.0083,-0.9854,0.1571
1080883,0.0092,-0.9867,0.1389
1080899,0.0101,-0.9861,0.1224
1080917,0.0112,-0.9840,0.1078
1080933,0.0125,-0.9812,0.0948
1080949,0.0137,-0.9781,0.0836
1080967,0.0148,-0.9756,0.0742
1081004,0.0165,-0.9729,0.0592
1081020,0.0168,-0.9735,0.0566
1081036,0.0170,-0.9749,0.0559
1081046,0.0170,-0.9757,0.0562
1081062,0.0167,-0.9778,0.0580
1081078,0.0165,-0.9801,0.0610
1081094,0.0161,-0.9823,0.0649
1081112,0.0157,-0.9843,0.0696
1081149,0.0151,-0.9871,0.0789
1081165,0.0149,-0.9878,0.0831
1081196,0.0148,-0.9879,0.0897
1081211,0.0148,-0.9875,0.0919
1081227,0.0148,-0.9871,0.0934
1081240,0.0149,-0.9865,0.0941
1081256,0.0149,-0.9861,0.0941
1081272,0.0150,-0.9855,0.0940
1081288,0.0151,-0.9850,0.0933
1081298,0.0151,-0.9846,0.0922
1081313,0.0153,-0.9845,0.0914
1081329,0.0153,-0.9843,0.0901
1081345,0.0153,-0.9843,0.0886
1081363,0.0151,-0.9843,0.0867
1081381,0.0151,-0.9845,0.0857
1081397,0.0150,-0.9846,0.0850
1081413,0.0150,-0.9849,0.0846
1081444,0.0150,-0.9852,0.0844
1081473,0.0151,-0.9855,0.0847
1081489,0.0151,-0.9856,0.0850
1081505,0.0151,-0.9856,0.0852
1081515,0.0153,-0.9856,0.0853
1081526,0.0153,-0.9856,0.0854
1081542,0.0153,-0.9855,0.0858
1081558,0.0154,-0.9854,0.0859
1081576,0.0154,-0.9854,0.0862
1081587,0.0154,-0.9852,0.0862
1081603,0.0154,-0.9852,0.0862
1081619,0.0154,-0.9852,0.0862
1081632,0.0154,-0.9852,0.0861
1081677,0.0153,-0.9852,0.0858
1081693,0.0153,-0.9854,0.0857
1081703,0.0153,-0.9854,0.0856
1081718,0.0151,-0.9854,0.0856
1081750,0.0150,-0.9854,0.0856
1081768,0.0149,-0.9852,0.0857
1081784,0.0149,-0.9852,0.0858
1081795,0.0149,-0.9852,0.0858
1081806,0.0149,-0.9852,0.0859
1081822,0.0149,-0.9852,0.0861
1081863,0.0150,-0.9851,0.0863
1081879,0.0150,-0.9852,0.0863
1081900,0.0150,-0.9852,0.0863
1081916,0.0151,-0.9852,0.0863
1081932,0.0151,-0.9852,0.0863
1081948,0.0151,-0.9852,0.0863
1081958,0.0151,-0.9852,0.0863
1081974,0.0153,-0.9851,0.0863
1081990,0.0153,-0.9851,0.0862
1082000,0.0153,-0.9851,0.0862
1082016,0.0151,-0.9851,0.0861
1082045,0.0151,-0.9851,0.0858
1082080,0.0150,-0.9851,0.0857
1082090,0.0150,-0.9851,0.0856
1082106,0.0150,-0.9851,0.0856
1082117,0.0150,-0.9851,0.0856
1082133,0.0150,-0.9851,0.0856
1082146,0.0150,-0.9852,0.0856
1082156,0.0150,-0.9852,0.0856
1082172,0.0150,-0.9852,0.0856
1082188,0.0150,-0.9852,0.0857
1082206,0.0150,-0.9852,0.0857
1082242,0.0151,-0.9852,0.0861
1082258,0.0151,-0.9852,0.0862
1082273,0.0151,-0.9852,0.0862
1082291,0.0151,-0.9851,0.0862
1082307,0.0151,-0.9851,0.0862
1082322,0.0151,-0.9851,0.0862
1082338,0.0151,-0.9851,0.0862
1082373,0.0153,-0.9850,0.0859
1082384,0.0153,-0.9850,0.0859
1082400,0.0153,-0.9850,0.0858
1082410,0.0153,-0.9850,0.0857
1082439,0.0151,-0.9850,0.0856
1082455,0.0151,-0.9850,0.0856
1082471,0.0153,-0.9851,0.0856
1082481,0.0153,-0.9851,0.0856
1082497,0.0153,-0.9851,0.0856
1082513,0.0153,-0.9851,0.0856
1082529,0.0154,-0.9851,0.0856
1082547,0.0154,-0.9851,0.0856
1082563,0.0153,-0.9851,0.0856
1082579,0.0153,-0.9851,0.0856
1082595,0.0153,-0.9851,0.0854
1082673,0.0149,-0.9851,0.0852
1082720,0.0149,-0.9852,0.0850
1082735,0.0149,-0.9851,0.0850
1082751,0.0150,-0.9851,0.0850
1082767,0.0150,-0.9851,0.0850
1082783,0.0151,-0.9851,0.0850
1082794,0.0151,-0.9851,0.0851
1082812,0.0153,-0.9850,0.0851
1082823,0.0153,-0.9850,0.0852
1082839,0.0153,-0.9850,0.0852
1082855,0.0153,-0.9850,0.0853
1082904,0.0153,-0.9850,0.0856
1082913,0.0151,-0.9850,0.0856
1082929,0.0151,-0.9850,0.0856
1082942,0.0150,-0.9850,0.0857
1082958,0.0149,-0.9851,0.0857
1082974,0.0149,-0.9851,0.0856
1083009,0.0149,-0.9854,0.0856
1083019,0.0149,-0.9854,0.0854
1083030,0.0149,-0.9855,0.0854
1083046,0.0149,-0.9855,0.0853
1083062,0.0149,-0.9856,0.0853
1083099,0.0150,-0.9857,0.0853
1083110,0.0150,-0.9857,0.0853
1083126,0.0150,-0.9857,0.0853
1083144,0.0151,-0.9856,0.0853
1083159,0.0151,-0.9856,0.0853
1083175,0.0151,-0.9855,0.0854
1083188,0.0151,-0.9854,0.0854
1083206,0.0151,-0.9852,0.0854
1083221,0.0151,-0.9852,0.0854
1083232,0.0151,-0.9851,0.0854
1083248,0.0151,-0.9851,0.0853
1083264,0.0151,-0.9851,0.0854
1083293,0.0151,-0.9851,0.0854
1083324,0.0150,-0.9852,0.0854
1083341,0.0150,-0.9854,0.0856
1083357,0.0151,-0.9854,0.0856
1083372,0.0151,-0.9855,0.0854
1083388,0.0151,-0.9855,0.0854
1083406,0.0151,-0.9856,0.0853
1083417,0.0151,-0.9856,0.0853
1083435,0.0153,-0.9856,0.0853
1083451,0.0153,-0.9856,0.0853
1083488,0.0153,-0.9857,0.0852
1083503,0.0153,-0.9857,0.0852
1083519,0.0154,-0.9856,0.0853
1083537,0.0154,-0.9856,0.0853
1083553,0.0154,-0.9855,0.0854
1083569,0.0154,-0.9855,0.0854
1083585,0.0154,-0.9854,0.0854
1083603,0.0154,-0.9852,0.0854
1083644,0.0154,-0.9851,0.0854
1083655,0.0154,-0.9850,0.0854
1083701,0.0154,-0.9850,0.0856
1083715,0.0154,-0.9850,0.0856
1083732,0.0154,-0.9851,0.0856
1083748,0.0154,-0.9851,0.0856
1083764,0.0153,-0.9851,0.0856
1083780,0.0153,-0.9851,0.0854
1083798,0.0153,-0.9851,0.0854
1083814,0.0151,-0.9851,0.0853
1083830,0.0151,-0.9851,0.0852
1083846,0.0151,-0.9851,0.0852
1083857,0.0151,-0.9851,0.0851
1083898,0.0151,-0.9851,0.0850
1083937,0.0153,-0.9851,0.0851
1083947,0.0153,-0.9852,0.0852
1083963,0.0153,-0.9852,0.0852
1083979,0.0153,-0.9852,0.0853
1083995,0.0153,-0.9854,0.0854
1084016,0.0153,-0.9855,0.0856
1084032,0.0151,-0.9855,0.0857
1084043,0.0151,-0.9855,0.0857
1084061,0.0153,-0.9855,0.0858
1084098,0.0153,-0.9855,0.0859
1084114,0.0153,-0.9854,0.0858
1084130,0.0153,-0.9854,0.0858
1084140,0.0153,-0.9854,0.0858
1084156,0.0153,-0.9852,0.0857
1084172,0.0153,-0.9852,0.0857
1084188,0.0153,-0.9852,0.0857
1084206,0.0153,-0.9852,0.0857
1084219,0.0151,-0.9851,0.0857
1084253,0.0151,-0.9852,0.0856
1084263,0.0150,-0.9852,0.0856
1084292,0.0150,-0.9852,0.0856
1084307,0.0150,-0.9852,0.0856
1084323,0.0150,-0.9854,0.0857
1084341,0.0150,-0.9854,0.0857
1084357,0.0150,-0.9854,0.0857
1084373,0.0151,-0.9854,0.0858
1084384,0.0151,-0.9854,0.0858
1084402,0.0151,-0.9854,0.0859
1084418,0.0151,-0.9854,0.0859
1084434,0.0151,-0.9852,0.0861
1084450,0.0151,-0.9852,0.0861
1084489,0.0153,-0.9852,0.0862
1084504,0.0153,-0.9852,0.0861
1084520,0.0153,-0.9852,0.0861
1084553,0.0153,-0.9854,0.0859
1084569,0.0153,-0.9854,0.0859
1084585,0.0153,-0.9854,0.0859
1084595,0.0153,-0.9854,0.0858
1084611,0.0153,-0.9854,0.0858
1084627,0.0153,-0.9854,0.0858
1084643,0.0151,-0.9852,0.0857
1084661,0.0151,-0.9852,0.0856
1084672,0.0150,-0.9852,0.0856
1084693,0.0150,-0.9851,0.0856
1084702,0.0150,-0.9851,0.0856
1084717,0.0150,-0.9851,0.0856
1084770,0.0157,-0.9927,0.0726
1084786,0.0165,-1.0017,0.0541
1084796,0.0171,-1.0070,0.0400
1084812,0.0190,-1.0160,0.0011
1084828,0.0223,-1.0216,-0.0521
1084859,0.0327,-1.0206,-0.1895
1084869,0.0356,-1.0176,-0.2263
1084880,0.0385,-1.0133,-0.2622
1084896,0.0422,-1.0011,-0.3259
1084912,0.0428,-0.9860,-0.3700
1084961,0.0280,-0.9623,-0.3221
1084977,0.0215,-0.9708,-0.2555
1084995,0.0162,-0.9857,-0.1809
1085006,0.0131,-1.0000,-0.1089
1085021,0.0123,-1.0051,-0.0758
1085037,0.0122,-1.0081,-0.0170
1085053,0.0126,-1.0012,0.0337
1085063,0.0122,-0.9883,0.0801
1085081,0.0109,-0.9742,0.1256
1085097,0.0088,-0.9633,0.1722
1085113,0.0062,-0.9565,0.2196
1085152,0.0007,-0.9536,0.3091
1085187,-0.0063,-0.9608,0.3875
1085197,-0.0074,-0.9628,0.3966
1085213,-0.0092,-0.9667,0.4076
1085227,-0.0100,-0.9700,0.4093
1085240,-0.0100,-0.9713,0.4069
1085258,-0.0093,-0.9735,0.3959
1085274,-0.0077,-0.9747,0.3779
1085284,-0.0066,-0.9750,0.3547
1085300,-0.0042,-0.9749,0.3418
1085311,-0.0013,-0.9744,0.3143
1085340,0.0029,-0.9739,0.2719
1085356,0.0055,-0.9745,0.2440
1085372,0.0078,-0.9762,0.2172
1085382,0.0089,-0.9774,0.2042
1085398,0.0107,-0.9801,0.1796
1085414,0.0123,-0.9827,0.1567
1085430,0.0135,-0.9844,0.1359
1085448,0.0144,-0.9850,0.1172
1085487,0.0151,-0.9828,0.0818
1085497,0.0151,-0.9821,0.0767
1085533,0.0148,-0.9789,0.0608
1085549,0.0144,-0.9783,0.0587
1085565,0.0143,-0.9783,0.0588
1085583,0.0140,-0.9786,0.0607
1085599,0.0140,-0.9794,0.0640
1085615,0.0139,-0.9805,0.0682
1085626,0.0139,-0.9811,0.0706
1085644,0.0139,-0.9822,0.0753
1085660,0.0140,-0.9833,0.0798
1085676,0.0140,-0.9844,0.0837
1085692,0.0140,-0.9851,0.0869
1085703,0.0140,-0.9857,0.0890
1085749,0.0140,-0.9863,0.0906
1085765,0.0140,-0.9863,0.0901
1085802,0.0139,-0.9858,0.0876
1085817,0.0139,-0.9856,0.0870
1085833,0.0139,-0.9854,0.0859
1085843,0.0139,-0.9852,0.0850
1085858,0.0139,-0.9851,0.0846
1085874,0.0139,-0.9850,0.0840
1085890,0.0139,-0.9849,0.0836
1085948,0.0140,-0.9850,0.0837
1085960,0.0140,-0.9850,0.0841
1085970,0.0140,-0.9851,0.0842
1085986,0.0140,-0.9852,0.0845
1086002,0.0140,-0.9852,0.0848
1086018,0.0140,-0.9854,0.0851
1086036,0.0142,-0.9854,0.0852
1086052,0.0142,-0.9854,0.0854
1086068,0.0143,-0.9854,0.0854
1086100,0.0144,-0.9854,0.0856
1086133,0.0144,-0.9854,0.0856
1086148,0.0144,-0.9854,0.0854
1086163,0.0144,-0.9852,0.0854
1086173,0.0144,-0.9852,0.0853
1086187,0.0144,-0.9852,0.0853
1086204,0.0143,-0.9852,0.0852
1086219,0.0143,-0.9851,0.0852
1086235,0.0143,-0.9851,0.0852
1086247,0.0142,-0.9851,0.0851
1086262,0.0142,-0.9850,0.0851
1086275,0.0142,-0.9850,0.0851
1086291,0.0140,-0.9850,0.0851
1086301,0.0140,-0.9850,0.0851
1086311,0.0140,-0.9849,0.0851
1086327,0.0140,-0.9849,0.0851
1086342,0.0140,-0.9849,0.0851
1086358,0.0139,-0.9849,0.0851
1086387,0.0139,-0.9849,0.0851
1086418,0.0140,-0.9855,0.0836
1086436,0.0148,-0.9888,0.0792
1086452,0.0167,-0.9968,0.0679
1086468,0.0206,-1.0077,0.0454
1086484,0.0262,-1.0167,0.0087
1086495,0.0297,-1.0194,-0.0154
1086505,0.0332,-1.0209,-0.0430
1086515,0.0403,-1.0209,-0.1071
1086531,0.0438,-1.0200,-0.1423
1086547,0.0499,-1.0172,-0.2159
1086563,0.0543,-1.0115,-0.2878
1086592,0.0529,-0.9875,-0.3906
1086608,0.0460,-0.9736,-0.4039
1086624,0.0364,-0.9637,-0.3850
1086634,0.0309,-0.9614,-0.3643
1086650,0.0199,-0.9639,-0.3054
1086666,0.0107,-0.9758,-0.2338
1086682,0.0046,-0.9930,-0.1633
1086736,0.0073,-1.0114,-0.0460
1086748,0.0112,-1.0013,-0.0376
1086802,0.0162,-0.9581,0.0118
1086815,0.0149,-0.9484,0.0552
1086832,0.0122,-0.9440,0.1128
1086846,0.0087,-0.9443,0.1804
1086861,0.0045,-0.9480,0.2521
1086877,0.0001,-0.9534,0.3215
1086892,-0.0020,-0.9592,0.3835
1086909,-0.0056,-0.9646,0.4338
1086925,-0.0087,-0.9670,0.4850
1086941,-0.0105,-0.9707,0.4819
1086952,-0.0114,-0.9730,0.4948
1086993,-0.0095,-0.9730,0.4679
1087024,-0.0051,-0.9695,0.4070
1087034,-0.0039,-0.9685,0.3894
1087050,-0.0015,-0.9667,0.3540
1087066,0.0010,-0.9659,0.3195
1087082,0.0031,-0.9669,0.2865
1087100,0.0049,-0.9697,0.2555
1087111,0.0057,-0.9717,0.2406
1087127,0.0076,-0.9763,0.2123
1087143,0.0094,-0.9807,0.1857
1087154,0.0103,-0.9825,0.1731
1087185,0.0131,-0.9852,0.1271
1087201,0.0142,-0.9841,0.1074
1087217,0.0150,-0.9822,0.0902
1087227,0.0155,-0.9810,0.0826
1087243,0.0161,-0.9786,0.0697
1087259,0.0164,-0.9766,0.0597
1087275,0.0165,-0.9752,0.0527
1087293,0.0165,-0.9745,0.0487
1087348,0.0156,-0.9778,0.0546
1087379,0.0151,-0.9816,0.0662
1087395,0.0149,-0.9833,0.0724
1087411,0.0146,-0.9849,0.0782
1087421,0.0145,-0.9855,0.0809
1087432,0.0144,-0.9861,0.0834
1087448,0.0144,-0.9868,0.0875
1087464,0.0144,-0.9873,0.0905
1087482,0.0144,-0.9874,0.0922
1087498,0.0144,-0.9873,0.0928
1087514,0.0145,-0.9871,0.0925
1087530,0.0145,-0.9867,0.0914
1087548,0.0146,-0.9862,0.0900
1087570,0.0146,-0.9856,0.0875
1087586,0.0148,-0.9852,0.0858
1087602,0.0148,-0.9850,0.0845
1087652,0.0148,-0.9847,0.0819
1087666,0.0146,-0.9847,0.0817
1087677,0.0146,-0.9849,0.0817
1087691,0.0146,-0.9850,0.0818
1087707,0.0145,-0.9851,0.0822
1087722,0.0145,-0.9854,0.0826
1087734,0.0145,-0.9854,0.0829
1087744,0.0145,-0.9854,0.0833
1087759,0.0146,-0.9855,0.0837
1087771,0.0146,-0.9856,0.0841
1087786,0.0146,-0.9856,0.0844
1087853,0.0150,-0.9855,0.0848
1087866,0.0150,-0.9855,0.0848
1087876,0.0151,-0.9855,0.0847
1087892,0.0151,-0.9854,0.0845
1087908,0.0151,-0.9852,0.0844
1087946,0.0150,-0.9851,0.0837
1087956,0.0150,-0.9850,0.0837
1087974,0.0149,-0.9850,0.0836
1087990,0.0149,-0.9850,0.0836
1088006,0.0148,-0.9849,0.0836
1088057,0.0146,-0.9850,0.0840
1088072,0.0146,-0.9851,0.0841
1088088,0.0146,-0.9851,0.0841
1088104,0.0146,-0.9851,0.0842
1088116,0.0146,-0.9852,0.0842
1088130,0.0146,-0.9852,0.0842
1088145,0.0146,-0.9852,0.0841
1088155,0.0146,-0.9852,0.0841
1088172,0.0146,-0.9852,0.0840
1088183,0.0146,-0.9854,0.0836
1088199,0.0146,-0.9857,0.0822
1088237,0.0164,-0.9962,0.0667
1088272,0.0269,-1.0197,-0.0127
1088285,0.0302,-1.0212,-0.0391
1088301,0.0370,-1.0214,-0.1007
1088317,0.0437,-1.0195,-0.1705
1088333,0.0497,-1.0167,-0.2437
1088343,0.0524,-1.0148,-0.2802
1088359,0.0569,-1.0105,-0.3507
1088373,0.0599,-1.0052,-0.4143
1088384,0.0608,-1.0023,-0.4417
1088400,0.0604,-0.9952,-0.4840
1088431,0.0499,-0.9785,-0.4982
1088446,0.0404,-0.9698,-0.4609
1088460,0.0294,-0.9613,-0.3922
1088471,0.0238,-0.9574,-0.3467
1088487,0.0127,-0.9510,-0.2365
1088503,0.0024,-0.9481,-0.1069
1088512,-0.0022,-0.9481,-0.0381
1088526,-0.0103,-0.9508,0.1017
1088539,-0.0135,-0.9532,0.1698
1088570,-0.0212,-0.9651,0.4061
1088588,-0.0222,-0.9706,0.4915
1088619,-0.0192,-0.9772,0.5828
1088635,-0.0160,-0.9778,0.5903
1088651,-0.0121,-0.9769,0.5769
1088664,-0.0101,-0.9761,0.5637
1088680,-0.0061,-0.9736,0.5277
1088696,-0.0024,-0.9709,0.4828
1088712,0.0007,-0.9685,0.4337
1088722,0.0021,-0.9675,0.3838
1088748,0.0061,-0.9659,0.3138
1088757,0.0068,-0.9662,0.2928
1088773,0.0081,-0.9677,0.2551
1088786,0.0085,-0.9689,0.2385
1088797,0.0093,-0.9722,0.2092
1088812,0.0096,-0.9741,0.1964
1088828,0.0104,-0.9785,0.1742
1088883,0.0132,-0.9866,0.1194
1088919,0.0146,-0.9836,0.0931
1088929,0.0151,-0.9813,0.0889
1088945,0.0156,-0.9791,0.0812
1088961,0.0160,-0.9773,0.0747
1088976,0.0161,-0.9766,0.0719
1088987,0.0162,-0.9758,0.0671
1089033,0.0165,-0.9771,0.0607
1089049,0.0165,-0.9784,0.0604
1089059,0.0164,-0.9801,0.0615
1089075,0.0164,-0.9810,0.0636
1089091,0.0164,-0.9827,0.0649
1089107,0.0162,-0.9843,0.0681
1089125,0.0160,-0.9860,0.0737
1089140,0.0160,-0.9865,0.0756
1089156,0.0159,-0.9871,0.0792
1089172,0.0157,-0.9874,0.0825
1089190,0.0156,-0.9874,0.0864
1089227,0.0155,-0.9867,0.0890
1089243,0.0155,-0.9862,0.0892
1089274,0.0154,-0.9854,0.0880
1089290,0.0154,-0.9850,0.0869
1089303,0.0154,-0.9849,0.0863
1089317,0.0155,-0.9847,0.0852
1089333,0.0155,-0.9846,0.0841
1089349,0.0155,-0.9846,0.0833
1089365,0.0156,-0.9846,0.0825
1089386,0.0156,-0.9847,0.0820
1089399,0.0156,-0.9849,0.0818
1089413,0.0156,-0.9850,0.0818
1089429,0.0156,-0.9851,0.0818
1089468,0.0157,-0.9854,0.0823
1089484,0.0157,-0.9854,0.0825
1089527,0.0159,-0.9855,0.0831
1089536,0.0159,-0.9855,0.0833
1089552,0.0159,-0.9854,0.0833
1089566,0.0159,-0.9854,0.0833
1089582,0.0159,-0.9854,0.0833
1089598,0.0159,-0.9854,0.0833
1089617,0.0157,-0.9854,0.0831
1089631,0.0157,-0.9854,0.0831
1089643,0.0156,-0.9854,0.0830
1089681,0.0156,-0.9854,0.0829
1089697,0.0156,-0.9854,0.0828
1089713,0.0156,-0.9854,0.0828
1089723,0.0156,-0.9854,0.0826
1089739,0.0156,-0.9854,0.0826
1089755,0.0156,-0.9854,0.0826
1089771,0.0157,-0.9852,0.0826
1089789,0.0157,-0.9852,0.0826
1089831,0.0157,-0.9851,0.0828
1089842,0.0157,-0.9851,0.0828
1089889,0.0157,-0.9851,0.0830
1089902,0.0156,-0.9851,0.0830
1089920,0.0156,-0.9851,0.0830
1089936,0.0156,-0.9851,0.0830
1089952,0.0156,-0.9851,0.0830
1089968,0.0156,-0.9851,0.0829
1089979,0.0156,-0.9851,0.0829
1089989,0.0156,-0.9851,0.0829
1090005,0.0156,-0.9851,0.0828
1090021,0.0156,-0.9851,0.0826
1090037,0.0156,-0.9851,0.0826
1090048,0.0156,-0.9852,0.0825
1090091,0.0156,-0.9852,0.0825
1090130,0.0157,-0.9854,0.0826
1090140,0.0157,-0.9854,0.0826
1090156,0.0157,-0.9854,0.0826
1090172,0.0156,-0.9854,0.0826
1090188,0.0156,-0.9854,0.0828
1090206,0.0156,-0.9854,0.0828
1090222,0.0156,-0.9854,0.0828
1090238,0.0156,-0.9854,0.0829
1090248,0.0156,-0.9854,0.0829
1090264,0.0156,-0.9854,0.0829
1090297,0.0155,-0.9854,0.0829
1090312,0.0155,-0.9854,0.0829
1090328,0.0155,-0.9854,0.0830
1090338,0.0155,-0.9854,0.0830
1090354,0.0155,-0.9854,0.0830
1090370,0.0155,-0.9854,0.0830
1090386,0.0156,-0.9854,0.0831
1090404,0.0156,-0.9854,0.0831
1090449,0.0157,-0.9854,0.0833
1090460,0.0157,-0.9854,0.0834
1090493,0.0159,-0.9854,0.0834
1090509,0.0159,-0.9854,0.0835
1090525,0.0159,-0.9854,0.0835
1090535,0.0159,-0.9854,0.0835
1090551,0.0159,-0.9854,0.0835
1090567,0.0159,-0.9854,0.0835
1090583,0.0157,-0.9854,0.0835
1090594,0.0157,-0.9854,0.0834
1090604,0.0157,-0.9854,0.0834
1090620,0.0156,-0.9854,0.0833
1090636,0.0155,-0.9854,0.0826
1090652,0.0155,-0.9863,0.0803
1090662,0.0156,-0.9879,0.0778
1090693,0.0178,-1.0059,0.0464
1090709,0.0209,-1.0162,0.0123
1090741,0.0312,-1.0204,-0.0972
1090761,0.0367,-1.0176,-0.1665
1090770,0.0393,-1.0164,-0.2028
1090786,0.0436,-1.0140,-0.2756
1090801,0.0469,-1.0111,-0.3457
1090815,0.0492,-1.0060,-0.4083
1090830,0.0499,-1.0026,-0.4352
1090846,0.0500,-0.9946,-0.4769
1090865,0.0454,-0.9836,-0.4987
1090915,0.0247,-0.9698,-0.3604
1090928,0.0208,-0.9675,-0.3142
1090938,0.0133,-0.9630,-0.2056
1090954,0.0098,-0.9601,-0.0804
1090970,0.0034,-0.9596,-0.0142
1090986,-0.0018,-0.9603,0.1198
1091004,-0.0076,-0.9644,0.3074
1091043,-0.0109,-0.9688,0.4945
1091059,-0.0109,-0.9696,0.5519
1091104,-0.0072,-0.9685,0.5811
1091120,-0.0054,-0.9678,0.5537
1091130,-0.0044,-0.9675,0.5354
1091146,-0.0024,-0.9668,0.4926
1091162,-0.0005,-0.9656,0.4451
1091173,0.0005,-0.9650,0.4211
1091191,0.0021,-0.9641,0.3745
1091207,0.0035,-0.9640,0.3319
1091223,0.0045,-0.9651,0.2939
1091239,0.0055,-0.9678,0.2607
1091257,0.0063,-0.9717,0.2316
1091275,0.0083,-0.9785,0.1943
1091291,0.0101,-0.9822,0.1727
1091304,0.0110,-0.9834,0.1627
1091370,0.0162,-0.9801,0.0973
1091388,0.0170,-0.9781,0.0851
1091404,0.0176,-0.9766,0.0747
1091420,0.0181,-0.9758,0.0662
1091433,0.0183,-0.9758,0.0593
1091451,0.0184,-0.9767,0.0544
1091467,0.0186,-0.9781,0.0514
1091477,0.0186,-0.9790,0.0505
1091493,0.0184,-0.9810,0.0505
1091504,0.0182,-0.9830,0.0522
1091535,0.0177,-0.9857,0.0580
1091544,0.0176,-0.9863,0.0605
1091560,0.0173,-0.9875,0.0662
1091581,0.0168,-0.9884,0.0752
1091597,0.0165,-0.9885,0.0809
1091613,0.0162,-0.9883,0.0859
1091652,0.0161,-0.9869,0.0934
1091662,0.0161,-0.9866,0.0940
1091680,0.0162,-0.9860,0.0942
1091696,0.0165,-0.9854,0.0936
1091712,0.0166,-0.9849,0.0924
1091750,0.0170,-0.9844,0.0883
1091766,0.0171,-0.9844,0.0867
1091782,0.0171,-0.9844,0.0859
1091792,0.0172,-0.9845,0.0848
1091805,0.0172,-0.9845,0.0844
1091817,0.0172,-0.9846,0.0837
1091833,0.0171,-0.9849,0.0835
1091849,0.0171,-0.9850,0.0835
1091859,0.0170,-0.9851,0.0835
1091875,0.0168,-0.9852,0.0839
1091890,0.0167,-0.9855,0.0842
1091905,0.0167,-0.9855,0.0845
1091960,0.0166,-0.9856,0.0857
1091999,0.0167,-0.9856,0.0862
1092009,0.0167,-0.9856,0.0862
1092025,0.0168,-0.9855,0.0862
1092041,0.0168,-0.9855,0.0862
1092057,0.0168,-0.9854,0.0861
1092075,0.0170,-0.9852,0.0861
1092093,0.0170,-0.9851,0.0859
1092109,0.0170,-0.9851,0.0858
1092125,0.0170,-0.9850,0.0857
1092136,0.0168,-0.9850,0.0856
1092179,0.0167,-0.9850,0.0853
1092195,0.0166,-0.9850,0.0853
1092213,0.0166,-0.9850,0.0852
1092229,0.0165,-0.9851,0.0852
1092245,0.0165,-0.9851,0.0853
1092261,0.0165,-0.9851,0.0853
1092292,0.0165,-0.9851,0.0854
1092325,0.0166,-0.9851,0.0854
1092340,0.0166,-0.9851,0.0854
1092356,0.0166,-0.9851,0.0856
1092366,0.0166,-0.9851,0.0856
1092381,0.0166,-0.9851,0.0854
1092397,0.0166,-0.9851,0.0854
1092413,0.0166,-0.9851,0.0854
1092431,0.0166,-0.9852,0.0853
1092447,0.0166,-0.9854,0.0851
1092458,0.0167,-0.9857,0.0841
1092474,0.0170,-0.9875,0.0811
1092486,0.0173,-0.9897,0.0780
1092496,0.0177,-0.9929,0.0734
1092506,0.0193,-1.0021,0.0573
1092522,0.0219,-1.0126,0.0293
1092537,0.0236,-1.0172,0.0100
1092553,0.0277,-1.0232,-0.0389
1092584,0.0382,-1.0220,-0.1696
1092616,0.0469,-1.0122,-0.3156
1092629,0.0493,-1.0050,-0.3829
1092645,0.0503,-0.9961,-0.4399
1092660,0.0502,-0.9908,-0.4622
1092676,0.0481,-0.9788,-0.4896
1092694,0.0398,-0.9613,-0.4760
1092712,0.0311,-0.9559,-0.4268
1092728,0.0209,-0.9581,-0.3502
1092744,0.0106,-0.9672,-0.2552
1092793,-0.0106,-0.9978,0.0476
1092805,-0.0125,-0.9983,0.0936
1092825,-0.0145,-0.9915,0.2197
1092841,-0.0139,-0.9875,0.2930
1092857,-0.0110,-0.9792,0.3259
1092873,-0.0063,-0.9718,0.3839
1092891,0.0009,-0.9633,0.4487
1092926,0.0079,-0.9569,0.4911
1092938,0.0090,-0.9561,0.4943
1093004,0.0079,-0.9563,0.4371
1093017,0.0062,-0.9575,0.4087
1093027,0.0052,-0.9583,0.3938
1093043,0.0035,-0.9603,0.3632
1093059,0.0020,-0.9633,0.3320
1093075,0.0007,-0.9669,0.3013
1093086,0.0004,-0.9691,0.2860
1093096,0.0001,-0.9740,0.2563
1093112,0.0002,-0.9790,0.2279
1093128,0.0012,-0.9813,0.2141
1093139,0.0029,-0.9852,0.1879
1093190,0.0098,-0.9867,0.1226
1093235,0.0149,-0.9796,0.0831
1093245,0.0164,-0.9785,0.0791
1093261,0.0173,-0.9768,0.0730
1093277,0.0179,-0.9758,0.0690
1093292,0.0181,-0.9756,0.0676
1093309,0.0181,-0.9762,0.0657
1093326,0.0178,-0.9773,0.0656
1093343,0.0175,-0.9789,0.0660
1093359,0.0170,-0.9807,0.0669
1093397,0.0162,-0.9844,0.0702
1093413,0.0159,-0.9858,0.0724
1093424,0.0156,-0.9869,0.0748
1093442,0.0154,-0.9878,0.0775
1093458,0.0153,-0.9882,0.0802
1093474,0.0151,-0.9883,0.0825
1093489,0.0151,-0.9883,0.0835
1093507,0.0151,-0.9877,0.0858
1093545,0.0153,-0.9866,0.0873
1093555,0.0153,-0.9861,0.0875
1093593,0.0154,-0.9851,0.0870
1093609,0.0154,-0.9849,0.0867
1093625,0.0154,-0.9846,0.0862
1093635,0.0154,-0.9846,0.0858
1093651,0.0154,-0.9845,0.0854
1093667,0.0154,-0.9846,0.0851
1093683,0.0154,-0.9847,0.0848
1093703,0.0154,-0.9849,0.0846
1093719,0.0154,-0.9850,0.0845
1093735,0.0154,-0.9851,0.0846
1093751,0.0154,-0.9852,0.0846
1093768,0.0154,-0.9852,0.0847
1093799,0.0154,-0.9852,0.0851
1093813,0.0155,-0.9852,0.0852
1093845,0.0155,-0.9852,0.0853
1093855,0.0155,-0.9852,0.0854
1093871,0.0155,-0.9851,0.0854
1093887,0.0155,-0.9851,0.0854
1093903,0.0155,-0.9851,0.0856
1093921,0.0154,-0.9851,0.0854
1093937,0.0154,-0.9851,0.0854
1093953,0.0153,-0.9851,0.0854
1093964,0.0153,-0.9851,0.0854
1094019,0.0151,-0.9851,0.0852
1094036,0.0151,-0.9851,0.0852
1094046,0.0151,-0.9851,0.0852
1094062,0.0151,-0.9851,0.0852
1094078,0.0153,-0.9852,0.0852
1094094,0.0153,-0.9852,0.0852
1094105,0.0153,-0.9852,0.0852
1094115,0.0153,-0.9852,0.0852
1094146,0.0153,-0.9852,0.0852
1094164,0.0154,-0.9852,0.0852
1094215,0.0154,-0.9852,0.0853
1094231,0.0154,-0.9852,0.0853
1094249,0.0154,-0.9852,0.0853
1094265,0.0154,-0.9852,0.0853
1094281,0.0154,-0.9852,0.0853
1094297,0.0155,-0.9852,0.0853
1094313,0.0155,-0.9852,0.0853
1094330,0.0156,-0.9852,0.0852
1094346,0.0157,-0.9852,0.0846
1094362,0.0160,-0.9865,0.0825
1094372,0.0162,-0.9882,0.0802
1094403,0.0176,-1.0038,0.0516
1094419,0.0189,-1.0128,0.0201
1094455,0.0237,-1.0203,-0.0822
1094465,0.0253,-1.0199,-0.1143
1094481,0.0286,-1.0161,-0.1816
1094497,0.0317,-1.0084,-0.2465
1094513,0.0343,-0.9971,-0.2986
1094531,0.0355,-0.9839,-0.3279
1094544,0.0352,-0.9727,-0.3278
1094560,0.0331,-0.9661,-0.2976
1094578,0.0299,-0.9647,-0.2419
1094616,0.0198,-0.9762,-0.0444
1094632,0.0155,-0.9824,0.0352
1094648,0.0115,-0.9880,0.1044
1094658,0.0098,-0.9904,0.1338
1094674,0.0071,-0.9933,0.1815
1094690,0.0057,-0.9930,0.2155
1094701,0.0054,-0.9919,0.2281
1094721,0.0044,-0.9865,0.2543
1094752,0.0029,-0.9799,0.2694
1094768,0.0021,-0.9756,0.2762
1094819,0.0013,-0.9663,0.2893
1094834,0.0016,-0.9650,0.2897
1094854,0.0027,-0.9641,0.2876
1094869,0.0037,-0.9644,0.2836
1094883,0.0043,-0.9647,0.2809
1094898,0.0056,-0.9659,0.2738
1094914,0.0070,-0.9678,0.2642
1094931,0.0083,-0.9696,0.2513
1094947,0.0096,-0.9716,0.2354
1094963,0.0110,-0.9736,0.2163
1094981,0.0125,-0.9757,0.1951
1094992,0.0138,-0.9778,0.1725
1095007,0.0144,-0.9788,0.1610
1095018,0.0156,-0.9806,0.1387
1095063,0.0176,-0.9843,0.0903
1095110,0.0182,-0.9863,0.0565
1095126,0.0181,-0.9866,0.0516
1095136,0.0179,-0.9867,0.0502
1095151,0.0178,-0.9868,0.0494
1095166,0.0176,-0.9868,0.0508
1095181,0.0175,-0.9867,0.0540
1095192,0.0173,-0.9867,0.0560
1095234,0.0171,-0.9861,0.0691
1095248,0.0170,-0.9858,0.0745
1095266,0.0168,-0.9856,0.0795
1095281,0.0168,-0.9854,0.0837
1095296,0.0167,-0.9852,0.0872
1095312,0.0167,-0.9850,0.0897
1095330,0.0166,-0.9849,0.0913
1095361,0.0165,-0.9847,0.0918
1095372,0.0164,-0.9847,0.0916
1095388,0.0164,-0.9847,0.0906
1095421,0.0164,-0.9849,0.0876
1095437,0.0164,-0.9850,0.0861
1095453,0.0165,-0.9850,0.0847
1095463,0.0165,-0.9850,0.0841
1095479,0.0166,-0.9851,0.0831
1095495,0.0167,-0.9851,0.0824
1095511,0.0167,-0.9852,0.0820
1095529,0.0168,-0.9852,0.0820
1095545,0.0170,-0.9852,0.0822
1095558,0.0170,-0.9852,0.0825
1095573,0.0171,-0.9852,0.0828
1095591,0.0172,-0.9852,0.0834
1095601,0.0172,-0.9852,0.0836
1095617,0.0172,-0.9852,0.0840
1095628,0.0173,-0.9852,0.0842
1095667,0.0173,-0.9852,0.0847
1095701,0.0173,-0.9852,0.0847
1095717,0.0172,-0.9852,0.0847
1095733,0.0171,-0.9854,0.0846
1095743,0.0171,-0.9854,0.0845
1095759,0.0170,-0.9854,0.0844
1095775,0.0168,-0.9854,0.0842
1095791,0.0167,-0.9854,0.0842
1095832,0.0166,-0.9854,0.0841
1095847,0.0166,-0.9854,0.0841
1095863,0.0166,-0.9854,0.0841
1095873,0.0166,-0.9854,0.0842
1095889,0.0166,-0.9854,0.0842
1095905,0.0166,-0.9854,0.0844
1095921,0.0166,-0.9854,0.0844
1095939,0.0166,-0.9854,0.0845
1095975,0.0167,-0.9854,0.0845
1095991,0.0167,-0.9854,0.0844
1096001,0.0168,-0.9855,0.0844
1096012,0.0168,-0.9855,0.0844
1096028,0.0168,-0.9855,0.0842
1096044,0.0170,-0.9855,0.0842
1096099,0.0170,-0.9857,0.0842
1096112,0.0170,-0.9857,0.0844
1096130,0.0171,-0.9857,0.0844
1096146,0.0171,-0.9857,0.0845
1096162,0.0171,-0.9856,0.0845
1096178,0.0171,-0.9855,0.0845
1096196,0.0171,-0.9855,0.0845
1096214,0.0170,-0.9852,0.0845
1096229,0.0170,-0.9852,0.0845
1096245,0.0170,-0.9852,0.0845
1096277,0.0170,-0.9851,0.0844
1096320,0.0171,-0.9851,0.0841
1096334,0.0171,-0.9851,0.0840
1096352,0.0171,-0.9852,0.0839
1096363,0.0171,-0.9852,0.0837
1096382,0.0171,-0.9852,0.0837
1096396,0.0171,-0.9854,0.0836
1096413,0.0171,-0.9854,0.0835
1096424,0.0171,-0.9854,0.0835
1096438,0.0171,-0.9854,0.0831
1096455,0.0170,-0.9861,0.0815
1096471,0.0173,-0.9901,0.0765
1096502,0.0212,-1.0107,0.0408
1096518,0.0255,-1.0200,0.0037
1096534,0.0312,-1.0229,-0.0476
1096544,0.0343,-1.0225,-0.0780
1096583,0.0469,-1.0128,-0.2563
1096599,0.0483,-1.0089,-0.3287
1096609,0.0505,-1.0071,-0.3629
1096623,0.0513,-1.0052,-0.3951
1096634,0.0520,-1.0016,-0.4521
1096650,0.0515,-0.9976,-0.4966
1096666,0.0496,-0.9919,-0.5239
1096697,0.0435,-0.9783,-0.5192
1096713,0.0372,-0.9672,-0.4777
1096729,0.0294,-0.9587,-0.4044
1096739,0.0203,-0.9569,-0.3052
1096754,0.0156,-0.9586,-0.2491
1096770,0.0068,-0.9656,-0.1306
1096786,-0.0005,-0.9735,-0.0114
1096806,-0.0092,-0.9807,0.1572
1096832,-0.0153,-0.9811,0.3032
1096843,-0.0168,-0.9802,0.3453
1096859,-0.0192,-0.9778,0.4182
1096918,-0.0160,-0.9642,0.5421
1096936,-0.0099,-0.9589,0.5382
1096947,-0.0077,-0.9574,0.5311
1096963,-0.0034,-0.9550,0.5101
1096979,0.0005,-0.9534,0.4825
1096997,0.0038,-0.9528,0.4510
1097013,0.0066,-0.9529,0.4180
1097029,0.0085,-0.9539,0.3851
1097048,0.0098,-0.9558,0.3536
1097096,0.0103,-0.9670,0.2697
1097112,0.0098,-0.9720,0.2443
1097127,0.0094,-0.9772,0.2197
1097143,0.0092,-0.9818,0.1958
1097159,0.0094,-0.9855,0.1727
1097197,0.0105,-0.9877,0.1301
1097207,0.0114,-0.9866,0.1116
1097222,0.0117,-0.9856,0.1033
1097238,0.0126,-0.9835,0.0887
1097249,0.0133,-0.9812,0.0771
1097265,0.0140,-0.9792,0.0685
1097311,0.0151,-0.9768,0.0592
1097327,0.0154,-0.9769,0.0596
1097337,0.0155,-0.9773,0.0605
1097353,0.0155,-0.9783,0.0634
1097368,0.0154,-0.9796,0.0673
1097387,0.0150,-0.9818,0.0741
1097395,0.0150,-0.9818,0.0764
1097404,0.0146,-0.9833,0.0787
1097420,0.0144,-0.9845,0.0829
1097435,0.0143,-0.9850,0.0848
1097453,0.0140,-0.9862,0.0894
1097491,0.0138,-0.9868,0.0924
1097526,0.0138,-0.9863,0.0919
1097536,0.0138,-0.9862,0.0916
1097552,0.0138,-0.9858,0.0905
1097568,0.0139,-0.9855,0.0894
1097583,0.0139,-0.9854,0.0887
1097594,0.0139,-0.9851,0.0876
1097604,0.0140,-0.9850,0.0872
1097620,0.0140,-0.9849,0.0864
1097632,0.0140,-0.9847,0.0861
1097648,0.0140,-0.9847,0.0856
1097658,0.0140,-0.9847,0.0853
1097689,0.0142,-0.9849,0.0853
1097705,0.0142,-0.9849,0.0856
1097721,0.0142,-0.9850,0.0858
1097731,0.0143,-0.9850,0.0862
1097747,0.0143,-0.9850,0.0863
1097763,0.0143,-0.9851,0.0865
1097779,0.0143,-0.9851,0.0869
1097797,0.0142,-0.9852,0.0872
1097834,0.0142,-0.9852,0.0873
1097850,0.0142,-0.9854,0.0874
1097892,0.0139,-0.9854,0.0873
1097907,0.0139,-0.9852,0.0873
1097925,0.0138,-0.9852,0.0872
1097941,0.0138,-0.9852,0.0872
1097957,0.0138,-0.9851,0.0870
1097973,0.0138,-0.9851,0.0870
1097991,0.0139,-0.9851,0.0872
1098007,0.0139,-0.9850,0.0872
1098023,0.0140,-0.9850,0.0872
1098039,0.0140,-0.9850,0.0873
1098057,0.0142,-0.9850,0.0873
1098069,0.0143,-0.9851,0.0874
1098085,0.0143,-0.9851,0.0874
1098101,0.0144,-0.9851,0.0875
1098126,0.0144,-0.9851,0.0876
1098194,0.0142,-0.9851,0.0878
1098204,0.0140,-0.9851,0.0878
1098220,0.0140,-0.9851,0.0878
1098236,0.0140,-0.9850,0.0878
1098252,0.0140,-0.9850,0.0876
1098305,0.0142,-0.9847,0.0874
1098321,0.0143,-0.9847,0.0874
1098331,0.0143,-0.9847,0.0873
1098347,0.0144,-0.9847,0.0873
1098362,0.0144,-0.9847,0.0873
1098378,0.0144,-0.9847,0.0873
1098395,0.0144,-0.9847,0.0873
1098444,0.0144,-0.9849,0.0872
1098461,0.0144,-0.9849,0.0872
1098471,0.0144,-0.9849,0.0872
1098487,0.0144,-0.9849,0.0872
1098503,0.0144,-0.9849,0.0872
1098518,0.0144,-0.9849,0.0872
1098552,0.0144,-0.9849,0.0873
1098567,0.0144,-0.9849,0.0873
1098583,0.0144,-0.9849,0.0874
1098593,0.0143,-0.9849,0.0874
1098608,0.0143,-0.9849,0.0874
1098624,0.0143,-0.9849,0.0874
1098640,0.0142,-0.9849,0.0874
1098653,0.0142,-0.9849,0.0874
1098663,0.0142,-0.9849,0.0874
1098673,0.0142,-0.9849,0.0874
1098689,0.0140,-0.9849,0.0873
1098705,0.0140,-0.9849,0.0873
1098736,0.0140,-0.9850,0.0873
1098767,0.0140,-0.9850,0.0873
1098783,0.0140,-0.9850,0.0873
1098799,0.0140,-0.9850,0.0873
1098809,0.0140,-0.9850,0.0873
1098825,0.0140,-0.9851,0.0872
1098843,0.0140,-0.9852,0.0869
1098852,0.0140,-0.9855,0.0864
1098863,0.0140,-0.9866,0.0841
1098876,0.0140,-0.9882,0.0815
1098887,0.0139,-0.9906,0.0775
1098903,0.0135,-0.9987,0.0629
1098919,0.0127,-1.0090,0.0365
1098960,0.0117,-1.0243,-0.0869
1098975,0.0135,-1.0238,-0.1542
1098991,0.0176,-1.0211,-0.2264
1099001,0.0204,-1.0192,-0.2632
1099043,0.0391,-1.0067,-0.4301
1099059,0.0463,-1.0022,-0.4808
1099069,0.0520,-0.9991,-0.5190
1099087,0.0558,-0.9963,-0.5416
1099103,0.0573,-0.9913,-0.5443
1099119,0.0555,-0.9828,-0.5212
1099174,0.0256,-0.9462,-0.2584
1099188,0.0082,-0.9387,-0.1094
1099198,-0.0012,-0.9370,-0.0271
1099214,-0.0197,-0.9374,0.1458
1099230,-0.0349,-0.9415,0.3177
1099246,-0.0449,-0.9473,0.4742
1099264,-0.0497,-0.9530,0.6030
1099280,-0.0499,-0.9578,0.6968
1099290,-0.0460,-0.9613,0.7522
1099306,-0.0428,-0.9625,0.7655
1099345,-0.0194,-0.9645,0.7101
1099389,0.0062,-0.9615,0.4923
1099395,0.0062,-0.9615,0.4923
1099410,0.0115,-0.9603,0.4155
1099421,0.0134,-0.9600,0.3455
1099436,0.0160,-0.9603,0.3138
1099451,0.0170,-0.9626,0.2582
1099468,0.0168,-0.9668,0.2126
1099479,0.0165,-0.9722,0.1768
1099489,0.0151,-0.9749,0.1620
1099502,0.0143,-0.9774,0.1492
1099518,0.0126,-0.9814,0.1281
1099534,0.0110,-0.9833,0.1121
1099573,0.0088,-0.9807,0.0865
1099589,0.0087,-0.9784,0.0800
1099605,0.0088,-0.9762,0.0746
1099615,0.0089,-0.9753,0.0723
1099650,0.0099,-0.9735,0.0657
1099666,0.0105,-0.9738,0.0641
1099676,0.0111,-0.9749,0.0640
1099689,0.0114,-0.9756,0.0643
1099707,0.0118,-0.9773,0.0662
1099723,0.0122,-0.9794,0.0690
1099761,0.0125,-0.9840,0.0787
1099777,0.0125,-0.9855,0.0826
1099788,0.0123,-0.9860,0.0845
1099806,0.0121,-0.9868,0.0878
1099822,0.0118,-0.9873,0.0902
1099838,0.0116,-0.9874,0.0918
1099854,0.0114,-0.9873,0.0927
1099872,0.0111,-0.9869,0.0928
1099888,0.0109,-0.9866,0.0925
1099904,0.0107,-0.9861,0.0918
1099915,0.0106,-0.9856,0.0908
1099979,0.0107,-0.9844,0.0872
1099996,0.0107,-0.9843,0.0867
1100011,0.0109,-0.9843,0.0865
1100027,0.0110,-0.9844,0.0863
1100043,0.0110,-0.9845,0.0863
1100061,0.0111,-0.9846,0.0865
1100077,0.0112,-0.9847,0.0868
1100093,0.0114,-0.9849,0.0872
1100104,0.0114,-0.9850,0.0876
1100162,0.0114,-0.9854,0.0886
1100178,0.0114,-0.9854,0.0887
1100193,0.0114,-0.9852,0.0889
1100209,0.0114,-0.9852,0.0889
1100225,0.0114,-0.9852,0.0889
1100256,0.0114,-0.9852,0.0886
1100266,0.0114,-0.9852,0.0886
1100282,0.0112,-0.9851,0.0884
1100298,0.0112,-0.9851,0.0883
1100314,0.0112,-0.9851,0.0881
1100324,0.0111,-0.9851,0.0880
1100367,0.0111,-0.9851,0.0878
1100385,0.0111,-0.9851,0.0878
1100393,0.0111,-0.9851,0.0878
1100402,0.0111,-0.9851,0.0878
1100414,0.0111,-0.9850,0.0878
1100430,0.0111,-0.9850,0.0876
1100444,0.0111,-0.9850,0.0876
1100460,0.0111,-0.9850,0.0878
1100470,0.0110,-0.9850,0.0878
1100487,0.0110,-0.9850,0.0878
1100503,0.0110,-0.9850,0.0878
1100517,0.0110,-0.9850,0.0878
1100528,0.0110,-0.9850,0.0876
1100585,0.0112,-0.9851,0.0875
1100603,0.0114,-0.9852,0.0875
1100619,0.0115,-0.9852,0.0875
1100635,0.0115,-0.9852,0.0874
1100651,0.0116,-0.9854,0.0874
1100669,0.0116,-0.9854,0.0873
1100684,0.0116,-0.9854,0.0873
1100697,0.0116,-0.9854,0.0873
1100713,0.0116,-0.9854,0.0873
1100754,0.0116,-0.9852,0.0873
1100770,0.0116,-0.9851,0.0873
1100786,0.0115,-0.9851,0.0873
1100796,0.0115,-0.9850,0.0873
1100812,0.0115,-0.9850,0.0874
1100828,0.0114,-0.9849,0.0874
1100876,0.0115,-0.9849,0.0875
1100889,0.0115,-0.9849,0.0875
1100905,0.0115,-0.9849,0.0875
1100921,0.0115,-0.9849,0.0875
1100939,0.0115,-0.9849,0.0875
1100970,0.0115,-0.9849,0.0875
1100986,0.0115,-0.9849,0.0875
1101002,0.0114,-0.9850,0.0874
1101012,0.0114,-0.9850,0.0874
1101027,0.0114,-0.9849,0.0874
1101039,0.0114,-0.9849,0.0873
1101055,0.0112,-0.9849,0.0873
1101076,0.0112,-0.9849,0.0873
1101092,0.0112,-0.9847,0.0872
1101108,0.0112,-0.9847,0.0872
1101124,0.0114,-0.9847,0.0872
1101134,0.0114,-0.9847,0.0872
1101145,0.0115,-0.9847,0.0872
1101177,0.0115,-0.9847,0.0873
1101232,0.0116,-0.9850,0.0874
1101245,0.0116,-0.9851,0.0875
1101263,0.0116,-0.9851,0.0876
1101279,0.0116,-0.9852,0.0876
1101295,0.0116,-0.9852,0.0876
1101311,0.0116,-0.9852,0.0876
1101329,0.0115,-0.9854,0.0875
1101347,0.0115,-0.9854,0.0875
1101363,0.0115,-0.9852,0.0874
1101379,0.0116,-0.9852,0.0873
1101390,0.0116,-0.9852,0.0873
1101433,0.0117,-0.9850,0.0872
1101449,0.0117,-0.9849,0.0872
1101484,0.0117,-0.9847,0.0872
1101494,0.0117,-0.9847,0.0873
1101510,0.0117,-0.9847,0.0873
1101525,0.0117,-0.9847,0.0874
1101540,0.0117,-0.9847,0.0875
1101551,0.0117,-0.9847,0.0875
1101582,0.0116,-0.9847,0.0878
1101598,0.0116,-0.9849,0.0878
1101614,0.0115,-0.9849,0.0879
1101624,0.0115,-0.9849,0.0879
1101640,0.0115,-0.9850,0.0880
1101656,0.0115,-0.9850,0.0880
1101672,0.0114,-0.9850,0.0880
1101690,0.0114,-0.9850,0.0879
1101701,0.0114,-0.9850,0.0879
1101717,0.0112,-0.9851,0.0878
1101733,0.0111,-0.9855,0.0869
1101746,0.0110,-0.9879,0.0837
1101779,0.0106,-1.0029,0.0557
1101811,0.0120,-1.0189,-0.0214
1101821,0.0129,-1.0208,-0.0491
1101837,0.0160,-1.0222,-0.1127
1101853,0.0204,-1.0219,-0.1838
1101869,0.0261,-1.0204,-0.2581
1101887,0.0331,-1.0178,-0.3308
1101903,0.0404,-1.0143,-0.3976
1101919,0.0469,-1.0100,-0.4537
1101935,0.0510,-1.0040,-0.4935
1101953,0.0522,-0.9967,-0.5112
1101963,0.0515,-0.9928,-0.5103
1101974,0.0476,-0.9856,-0.4867
1101989,0.0444,-0.9828,-0.4640
1102005,0.0365,-0.9788,-0.3984
1102036,0.0166,-0.9724,-0.2039
1102051,0.0061,-0.9672,-0.0864
1102067,-0.0034,-0.9609,0.0369
1102077,-0.0076,-0.9579,0.0986
1102116,-0.0204,-0.9521,0.3762
1102125,-0.0216,-0.9528,0.4202
1102145,-0.0231,-0.9552,0.5232
1102161,-0.0231,-0.9584,0.5406
1102172,-0.0219,-0.9618,0.5665
1102188,-0.0197,-0.9650,0.5712
1102243,-0.0105,-0.9697,0.4924
1102257,-0.0076,-0.9701,0.4484
1102267,-0.0062,-0.9701,0.4252
1102283,-0.0037,-0.9698,0.3784
1102299,-0.0016,-0.9694,0.3336
1102315,0.0001,-0.9685,0.2931
1102333,0.0012,-0.9679,0.2588
1102349,0.0018,-0.9679,0.2312
1102365,0.0022,-0.9691,0.2098
1102376,0.0024,-0.9716,0.1932
1102427,0.0029,-0.9836,0.1581
1102468,0.0045,-0.9882,0.1305
1102478,0.0050,-0.9878,0.1246
1102494,0.0059,-0.9863,0.1128
1102510,0.0068,-0.9843,0.1012
1102526,0.0078,-0.9819,0.0901
1102542,0.0085,-0.9799,0.0798
1102559,0.0093,-0.9783,0.0707
1102570,0.0095,-0.9778,0.0668
1102581,0.0100,-0.9772,0.0599
1102596,0.0101,-0.9772,0.0571
1102627,0.0104,-0.9786,0.0513
1102643,0.0103,-0.9801,0.0513
1102659,0.0100,-0.9816,0.0532
1102669,0.0099,-0.9824,0.0548
1102685,0.0096,-0.9839,0.0588
1102701,0.0093,-0.9852,0.0638
1102717,0.0089,-0.9863,0.0692
1102735,0.0087,-0.9871,0.0746
1102769,0.0082,-0.9877,0.0856
1102787,0.0081,-0.9874,0.0885
1102818,0.0081,-0.9869,0.0909
1102834,0.0081,-0.9866,0.0913
1102849,0.0082,-0.9862,0.0908
1102859,0.0083,-0.9860,0.0903
1102870,0.0084,-0.9856,0.0890
1102887,0.0085,-0.9854,0.0873
1102904,0.0087,-0.9852,0.0854
1102924,0.0087,-0.9851,0.0836
1102939,0.0088,-0.9851,0.0819
1102955,0.0089,-0.9851,0.0806
1102971,0.0089,-0.9852,0.0795
1103019,0.0088,-0.9855,0.0784
1103034,0.0087,-0.9856,0.0786
1103079,0.0085,-0.9857,0.0801
1103095,0.0084,-0.9857,0.0807
1103111,0.0084,-0.9857,0.0814
1103121,0.0084,-0.9857,0.0817
1103137,0.0084,-0.9856,0.0823
1103153,0.0084,-0.9856,0.0825
1103169,0.0084,-0.9856,0.0828
1103189,0.0084,-0.9855,0.0828
1103201,0.0085,-0.9855,0.0828
1103212,0.0085,-0.9855,0.0826
1103228,0.0085,-0.9855,0.0825
1103244,0.0087,-0.9854,0.0823
1103302,0.0088,-0.9855,0.0815
1103315,0.0088,-0.9856,0.0815
1103325,0.0088,-0.9856,0.0814
1103341,0.0088,-0.9856,0.0814
1103380,0.0088,-0.9857,0.0814
1103390,0.0088,-0.9857,0.0814
1103401,0.0088,-0.9858,0.0814
1103417,0.0088,-0.9858,0.0814
1103433,0.0088,-0.9858,0.0815
1103484,0.0089,-0.9857,0.0818
1103500,0.0089,-0.9856,0.0818
1103518,0.0089,-0.9856,0.0819
1103534,0.0089,-0.9856,0.0820
1103547,0.0089,-0.9855,0.0820
1103559,0.0089,-0.9855,0.0820
1103575,0.0089,-0.9856,0.0820
1103585,0.0089,-0.9856,0.0820
1103603,0.0088,-0.9856,0.0819
1103619,0.0087,-0.9862,0.0809
1103635,0.0088,-0.9889,0.0774
1103673,0.0118,-1.0116,0.0331
1103704,0.0160,-1.0222,-0.0325
1103714,0.0198,-1.0233,-0.0927
1103730,0.0244,-1.0211,-0.1619
1103745,0.0269,-1.0193,-0.1984
1103761,0.0321,-1.0154,-0.2725
1103779,0.0398,-1.0100,-0.3785
1103794,0.0421,-1.0085,-0.4105
1103804,0.0460,-1.0062,-0.4672
1103818,0.0477,-1.0055,-0.4915
1103834,0.0503,-1.0043,-0.5306
1103865,0.0531,-1.0022,-0.5695
1103883,0.0519,-0.9993,-0.5664
1103891,0.0503,-0.9974,-0.5579
1103907,0.0452,-0.9944,-0.5259
1103924,0.0378,-0.9948,-0.4756
1103939,0.0294,-0.9983,-0.4126
1103955,0.0217,-1.0017,-0.3431
1103971,0.0155,-1.0009,-0.2708
1104013,0.0033,-0.9727,-0.0750
1104024,0.0007,-0.9642,0.0151
1104055,-0.0109,-0.9359,0.1637
1104070,-0.0173,-0.9293,0.2671
1104086,-0.0237,-0.9285,0.3677
1104096,-0.0266,-0.9297,0.4152
1104112,-0.0316,-0.9346,0.5013
1104123,-0.0349,-0.9412,0.5720
1104139,-0.0359,-0.9447,0.6244
1104157,-0.0356,-0.9546,0.6571
1104173,-0.0334,-0.9592,0.6704
1104188,-0.0319,-0.9608,0.6702
1104204,-0.0281,-0.9628,0.6580
1104224,-0.0214,-0.9633,0.6161
1104235,-0.0190,-0.9630,0.5975
1104250,-0.0144,-0.9622,0.5565
1104265,-0.0100,-0.9612,0.5128
1104321,0.0006,-0.9592,0.3721
1104366,0.0033,-0.9586,0.3011
1104376,0.0035,-0.9587,0.2899
1104392,0.0039,-0.9595,0.2695
1104408,0.0040,-0.9615,0.2509
1104424,0.0043,-0.9648,0.2325
1104477,0.0063,-0.9775,0.1654
1104493,0.0072,-0.9790,0.1455
1104503,0.0077,-0.9792,0.1357
1104519,0.0088,-0.9791,0.1171
1104530,0.0094,-0.9789,0.1084
1104546,0.0104,-0.9783,0.0925
1104562,0.0114,-0.9775,0.0792
1104579,0.0121,-0.9771,0.0687
1104595,0.0126,-0.9771,0.0610
1104611,0.0129,-0.9774,0.0562
1104629,0.0132,-0.9781,0.0541
1104660,0.0129,-0.9806,0.0570
1104670,0.0128,-0.9813,0.0590
1104686,0.0126,-0.9827,0.0638
1104717,0.0120,-0.9850,0.0754
1104733,0.0116,-0.9858,0.0813
1104749,0.0114,-0.9863,0.0865
1104759,0.0112,-0.9866,0.0889
1104775,0.0111,-0.9867,0.0928
1104791,0.0110,-0.9866,0.0956
1104807,0.0110,-0.9863,0.0973
1104818,0.0110,-0.9862,0.0978
1104828,0.0111,-0.9860,0.0979
1104841,0.0111,-0.9856,0.0977
1104857,0.0112,-0.9851,0.0966
1104879,0.0115,-0.9845,0.0941
1104885,0.0115,-0.9845,0.0941
1104927,0.0117,-0.9840,0.0890
1104936,0.0117,-0.9840,0.0884
1104967,0.0117,-0.9841,0.0869
1104980,0.0117,-0.9844,0.0865
1104995,0.0117,-0.9845,0.0863
1105011,0.0117,-0.9847,0.0864
1105026,0.0117,-0.9849,0.0868
1105044,0.0117,-0.9851,0.0873
1105060,0.0116,-0.9851,0.0879
1105071,0.0116,-0.9852,0.0881
1105082,0.0116,-0.9852,0.0884
1105098,0.0116,-0.9852,0.0889
1105129,0.0115,-0.9852,0.0896
1105145,0.0114,-0.9852,0.0897
1105161,0.0114,-0.9851,0.0897
1105171,0.0114,-0.9851,0.0897
1105187,0.0114,-0.9851,0.0896
1105203,0.0114,-0.9850,0.0895
1105219,0.0114,-0.9849,0.0894
1105239,0.0114,-0.9847,0.0891
1105274,0.0114,-0.9847,0.0889
1105285,0.0114,-0.9846,0.0889
1105340,0.0114,-0.9847,0.0885
1105353,0.0112,-0.9847,0.0885
1105371,0.0112,-0.9847,0.0885
1105386,0.0112,-0.9847,0.0885
1105402,0.0112,-0.9847,0.0885
1105418,0.0112,-0.9847,0.0885
1105429,0.0112,-0.9847,0.0885
1105439,0.0112,-0.9847,0.0885
1105455,0.0112,-0.9847,0.0885
1105471,0.0112,-0.9847,0.0886
1105489,0.0114,-0.9847,0.0886
1105540,0.0115,-0.9849,0.0887
1105572,0.0115,-0.9849,0.0889
1105582,0.0116,-0.9849,0.0889
1105598,0.0116,-0.9849,0.0890
1105614,0.0115,-0.9850,0.0891
1105630,0.0115,-0.9850,0.0891
1105648,0.0114,-0.9850,0.0891
1105664,0.0114,-0.9851,0.0891
1105680,0.0112,-0.9851,0.0891
1105690,0.0112,-0.9851,0.0891
1105706,0.0112,-0.9851,0.0891
1105737,0.0112,-0.9851,0.0889
1105748,0.0112,-0.9851,0.0887
1105763,0.0112,-0.9851,0.0887
1105781,0.0112,-0.9850,0.0885
1105796,0.0112,-0.9850,0.0885
1105812,0.0112,-0.9850,0.0883
1105828,0.0114,-0.9851,0.0878
1105846,0.0114,-0.9866,0.0848
1105882,0.0133,-1.0011,0.0634
1105892,0.0144,-1.0070,0.0518
1105930,0.0248,-1.0264,-0.0568
1105946,0.0310,-1.0269,-0.1221
1105962,0.0381,-1.0242,-0.1945
1105972,0.0417,-1.0217,-0.2318
1105988,0.0486,-1.0146,-0.3055
1106004,0.0535,-1.0044,-0.3716
1106020,0.0552,-0.9911,-0.4204
1106031,0.0546,-0.9836,-0.4355
1106041,0.0529,-0.9761,-0.4429
1106056,0.0468,-0.9608,-0.4314
1106071,0.0372,-0.9473,-0.3820
1106088,0.0253,-0.9374,-0.2957
1106098,0.0188,-0.9343,-0.2401
1106129,-0.0059,-0.9377,0.0342
1106145,-0.0153,-0.9464,0.1790
1106187,-0.0264,-0.9698,0.4653
1106197,-0.0266,-0.9735,0.5022
1106213,-0.0255,-0.9794,0.5524
1106229,-0.0225,-0.9828,0.5720
1106245,-0.0181,-0.9839,0.5646
1106266,-0.0101,-0.9824,0.5143
1106282,-0.0046,-0.9805,0.4631
1106301,0.0005,-0.9783,0.4048
1106312,0.0027,-0.9772,0.3748
1106367,0.0129,-0.9727,0.1930
1106380,0.0142,-0.9733,0.1578
1106397,0.0146,-0.9744,0.1310
1106413,0.0146,-0.9758,0.1115
1106428,0.0145,-0.9764,0.1042
1106444,0.0140,-0.9773,0.0940
1106462,0.0133,-0.9779,0.0863
1106493,0.0126,-0.9780,0.0845
1106504,0.0122,-0.9780,0.0847
1106520,0.0121,-0.9783,0.0850
1106563,0.0123,-0.9797,0.0829
1106578,0.0127,-0.9807,0.0806
1106596,0.0129,-0.9817,0.0780
1106612,0.0133,-0.9828,0.0754
1106628,0.0135,-0.9839,0.0735
1106644,0.0138,-0.9847,0.0725
1106662,0.0140,-0.9855,0.0726
1106678,0.0140,-0.9861,0.0741
1106694,0.0142,-0.9865,0.0764
1106707,0.0140,-0.9866,0.0780
1106745,0.0139,-0.9863,0.0863
1106761,0.0138,-0.9860,0.0892
1106803,0.0135,-0.9851,0.0931
1106813,0.0134,-0.9850,0.0933
1106829,0.0133,-0.9847,0.0933
1106845,0.0133,-0.9846,0.0928
1106861,0.0132,-0.9845,0.0920
1106879,0.0131,-0.9845,0.0912
1106892,0.0131,-0.9845,0.0905
1106910,0.0131,-0.9845,0.0897
1106926,0.0131,-0.9846,0.0890
1106944,0.0132,-0.9846,0.0885
1106977,0.0132,-0.9847,0.0879
1106988,0.0132,-0.9849,0.0879
1107004,0.0133,-0.9849,0.0879
1107022,0.0133,-0.9850,0.0880
1107038,0.0133,-0.9850,0.0883
1107054,0.0134,-0.9850,0.0885
1107067,0.0134,-0.9850,0.0886
1107109,0.0134,-0.9849,0.0891
1107119,0.0134,-0.9849,0.0892
1107135,0.0134,-0.9847,0.0894
1107174,0.0134,-0.9847,0.0895
1107190,0.0134,-0.9847,0.0895
1107206,0.0134,-0.9846,0.0894
1107216,0.0134,-0.9846,0.0894
1107232,0.0133,-0.9846,0.0894
1107248,0.0133,-0.9846,0.0894
1107264,0.0133,-0.9846,0.0894
1107282,0.0133,-0.9846,0.0892
1107293,0.0133,-0.9846,0.0892
1107309,0.0132,-0.9846,0.0892
1107328,0.0132,-0.9846,0.0892
1107386,0.0131,-0.9847,0.0891
1107422,0.0131,-0.9849,0.0891
1107432,0.0131,-0.9849,0.0891
1107448,0.0132,-0.9849,0.0891
1107464,0.0133,-0.9849,0.0891
1107480,0.0134,-0.9849,0.0891
1107498,0.0134,-0.9849,0.0891
1107514,0.0134,-0.9847,0.0892
1107532,0.0134,-0.9847,0.0892
1107548,0.0134,-0.9846,0.0892
1107599,0.0133,-0.9845,0.0892
1107615,0.0133,-0.9845,0.0892
1107633,0.0133,-0.9845,0.0892
1107649,0.0132,-0.9846,0.0892
1107660,0.0133,-0.9846,0.0892
1107675,0.0133,-0.9846,0.0891
1107691,0.0133,-0.9847,0.0891
1107734,0.0134,-0.9849,0.0890
1107744,0.0134,-0.9849,0.0890
1107780,0.0134,-0.9849,0.0890
1107796,0.0134,-0.9849,0.0890
1107812,0.0134,-0.9849,0.0890
1107830,0.0134,-0.9849,0.0890
1107846,0.0134,-0.9849,0.0890
1107862,0.0134,-0.9850,0.0890
1107878,0.0134,-0.9850,0.0891
1107896,0.0134,-0.9850,0.0891
1107912,0.0134,-0.9850,0.0891
1107928,0.0134,-0.9850,0.0891
1107946,0.0134,-0.9849,0.0891
1107984,0.0135,-0.9850,0.0887
1108016,0.0140,-0.9916,0.0803
1108029,0.0151,-1.0015,0.0653
1108044,0.0160,-1.0074,0.0535
1108060,0.0184,-1.0186,0.0199
1108076,0.0222,-1.0248,-0.0277
1108094,0.0271,-1.0238,-0.1222
1108110,0.0323,-1.0219,-0.1580
1108126,0.0376,-1.0178,-0.2323
1108142,0.0422,-1.0145,-0.3064
1108153,0.0466,-1.0114,-0.3759
1108184,0.0526,-1.0049,-0.4869
1108200,0.0553,-1.0038,-0.5071
1108216,0.0566,-1.0027,-0.5367
1108226,0.0566,-1.0013,-0.5526
1108241,0.0562,-1.0001,-0.5551
1108257,0.0540,-0.9958,-0.5472
1108273,0.0494,-0.9895,-0.5195
1108284,0.0422,-0.9814,-0.4689
1108294,0.0377,-0.9769,-0.4342
1108335,0.0079,-0.9530,-0.1697
1108354,-0.0045,-0.9463,-0.0315
1108413,-0.0328,-0.9493,0.4467
1108426,-0.0352,-0.9542,0.5472
1108436,-0.0354,-0.9567,0.5879
1108452,-0.0343,-0.9607,0.6487
1108468,-0.0316,-0.9636,0.6823
1108484,-0.0277,-0.9651,0.6903
1108504,-0.0232,-0.9650,0.6630
1108520,-0.0183,-0.9644,0.6455
1108536,-0.0134,-0.9625,0.6019
1108554,-0.0070,-0.9594,0.5240
1108597,0.0004,-0.9570,0.3938
1108622,0.0027,-0.9579,0.3303
1108632,0.0033,-0.9585,0.3126
1108648,0.0039,-0.9602,0.2823
1108659,0.0040,-0.9614,0.2695
1108675,0.0043,-0.9650,0.2474
1108693,0.0044,-0.9722,0.2203
1108709,0.0046,-0.9747,0.2040
1108725,0.0052,-0.9794,0.1958
1108741,0.0062,-0.9828,0.1792
1108782,0.0093,-0.9828,0.1355
1108798,0.0105,-0.9807,0.1185
1108814,0.0116,-0.9784,0.1027
1108824,0.0121,-0.9762,0.0884
1108840,0.0129,-0.9752,0.0822
1108856,0.0135,-0.9740,0.0713
1108872,0.0139,-0.9735,0.0632
1108890,0.0142,-0.9742,0.0562
1108941,0.0134,-0.9796,0.0588
1108961,0.0132,-0.9816,0.0632
1108972,0.0128,-0.9835,0.0686
1108983,0.0127,-0.9843,0.0714
1108999,0.0125,-0.9856,0.0771
1109039,0.0121,-0.9873,0.0892
1109055,0.0120,-0.9873,0.0927
1109071,0.0120,-0.9869,0.0950
1109081,0.0120,-0.9868,0.0958
1109096,0.0120,-0.9863,0.0969
1109112,0.0120,-0.9858,0.0972
1109127,0.0120,-0.9855,0.0970
1109145,0.0120,-0.9849,0.0959
1109160,0.0120,-0.9847,0.0955
1109182,0.0120,-0.9844,0.0935
1109198,0.0120,-0.9843,0.0920
1109229,0.0120,-0.9844,0.0895
1109261,0.0121,-0.9846,0.0876
1109271,0.0121,-0.9847,0.0873
1109287,0.0121,-0.9850,0.0869
1109298,0.0122,-0.9850,0.0868
1109314,0.0122,-0.9852,0.0868
1109332,0.0122,-0.9854,0.0869
1109348,0.0123,-0.9855,0.0872
1109364,0.0123,-0.9855,0.0874
1109383,0.0125,-0.9855,0.0879
1109431,0.0125,-0.9854,0.0886
1109444,0.0123,-0.9854,0.0886
1109454,0.0123,-0.9854,0.0887
1109470,0.0122,-0.9854,0.0887
1109486,0.0122,-0.9852,0.0887
1109502,0.0121,-0.9852,0.0887
1109522,0.0121,-0.9851,0.0886
1109560,0.0121,-0.9851,0.0886
1109576,0.0121,-0.9850,0.0886
1109622,0.0121,-0.9850,0.0887
1109633,0.0121,-0.9850,0.0889
1109651,0.0121,-0.9850,0.0889
1109667,0.0122,-0.9850,0.0890
1109683,0.0122,-0.9850,0.0890
1109699,0.0122,-0.9850,0.0890
1109717,0.0122,-0.9850,0.0891
1109733,0.0122,-0.9850,0.0890
1109749,0.0122,-0.9849,0.0890
1109765,0.0123,-0.9850,0.0889
1109783,0.0123,-0.9851,0.0881
1109793,0.0123,-0.9867,0.0854
1109808,0.0122,-0.9885,0.0825
1109824,0.0121,-0.9956,0.0712
1109866,0.0135,-1.0221,-0.0343
1109897,0.0183,-1.0228,-0.1276
1109913,0.0234,-1.0209,-0.1981
1109929,0.0300,-1.0181,-0.2704
1109945,0.0370,-1.0144,-0.3402
1109961,0.0436,-1.0098,-0.4030
1109977,0.0488,-1.0050,-0.4537
1109995,0.0519,-1.0002,-0.4878
1110026,0.0500,-0.9901,-0.4889
1110042,0.0448,-0.9840,-0.4506
1110058,0.0374,-0.9762,-0.3850
1110068,0.0330,-0.9717,-0.3423
1110084,0.0233,-0.9618,-0.2386
1110100,0.0133,-0.9520,-0.1156
1110116,0.0033,-0.9442,0.0186
1110133,-0.0057,-0.9399,0.1549
1110165,-0.0187,-0.9438,0.3988
1110181,-0.0220,-0.9497,0.4916
1110222,-0.0215,-0.9647,0.6100
1110238,-0.0188,-0.9691,0.6135
1110254,-0.0155,-0.9720,0.5967
1110267,-0.0138,-0.9729,0.5820
1110283,-0.0104,-0.9736,0.5433
1110299,-0.0071,-0.9731,0.4966
1110315,-0.0043,-0.9722,0.4462
1110325,-0.0029,-0.9718,0.3959
1110341,-0.0009,-0.9718,0.3715
1110357,0.0007,-0.9729,0.3254
1110373,0.0021,-0.9750,0.2841
1110391,0.0039,-0.9788,0.2323
1110402,0.0045,-0.9799,0.2177
1110418,0.0057,-0.9814,0.1920
1110434,0.0068,-0.9819,0.1704
1110446,0.0073,-0.9816,0.1610
1110517,0.0121,-0.9716,0.1044
1110530,0.0126,-0.9708,0.0967
1110546,0.0134,-0.9700,0.0934
1110562,0.0140,-0.9701,0.0875
1110573,0.0145,-0.9712,0.0825
1110591,0.0150,-0.9730,0.0782
1110609,0.0151,-0.9752,0.0750
1110625,0.0153,-0.9778,0.0725
1110640,0.0151,-0.9803,0.0713
1110691,0.0144,-0.9863,0.0743
1110707,0.0142,-0.9874,0.0773
1110725,0.0138,-0.9880,0.0807
1110741,0.0135,-0.9882,0.0844
1110783,0.0129,-0.9874,0.0927
1110793,0.0128,-0.9867,0.0952
1110811,0.0128,-0.9861,0.0969
1110827,0.0128,-0.9855,0.0979
1110843,0.0128,-0.9849,0.0981
1110881,0.0129,-0.9840,0.0969
1110897,0.0131,-0.9839,0.0957
1110913,0.0131,-0.9838,0.0944
1110926,0.0132,-0.9838,0.0931
1110942,0.0132,-0.9839,0.0920
1110954,0.0132,-0.9839,0.0916
1110972,0.0132,-0.9840,0.0907
1110981,0.0132,-0.9841,0.0905
1110994,0.0132,-0.9843,0.0900
1111016,0.0131,-0.9845,0.0898
1111032,0.0131,-0.9846,0.0898
1111048,0.0129,-0.9847,0.0901
1111079,0.0128,-0.9849,0.0906
1111110,0.0128,-0.9850,0.0913
1111120,0.0128,-0.9850,0.0914
1111135,0.0127,-0.9850,0.0917
1111151,0.0127,-0.9850,0.0919
1111167,0.0127,-0.9850,0.0920
1111178,0.0127,-0.9850,0.0922
1111188,0.0127,-0.9849,0.0922
1111204,0.0127,-0.9849,0.0922
1111214,0.0127,-0.9849,0.0922
1111230,0.0128,-0.9847,0.0920
