timestamp,acc_x,acc_y,acc_z
786234,-0.0743,-0.5261,0.8102
786377,-0.0198,-0.4830,0.8341
786395,-0.0099,-0.4794,0.8385
786417,0.0005,-0.4763,0.8436
786439,0.0211,-0.4720,0.8557
786469,0.0408,-0.4698,0.8704
786490,0.0499,-0.4695,0.8783
786515,0.0583,-0.4694,0.8865
786537,0.0731,-0.4696,0.9025
786557,0.0792,-0.4698,0.9099
786582,0.0844,-0.4700,0.9166
786604,0.0916,-0.4698,0.9275
786628,0.0935,-0.4695,0.9313
786653,0.0946,-0.4679,0.9354
786673,0.0938,-0.4668,0.9357
786696,0.0922,-0.4653,0.9347
786723,0.0874,-0.4618,0.9296
786746,0.0846,-0.4597,0.9257
786770,0.0792,-0.4551,0.9156
786793,0.0768,-0.4526,0.9099
786815,0.0746,-0.4500,0.9037
786832,0.0728,-0.4471,0.8972
786859,0.0697,-0.4412,0.8840
786877,0.0686,-0.4381,0.8776
786912,0.0670,-0.4326,0.8657
786935,0.0664,-0.4288,0.8564
786960,0.0665,-0.4280,0.8529
786981,0.0669,-0.4279,0.8505
787002,0.0681,-0.4302,0.8489
787027,0.0684,-0.4323,0.8503
787049,0.0665,-0.4374,0.8591
787073,0.0637,-0.4397,0.8671
787108,0.0527,-0.4427,0.8909
787131,0.0336,-0.4415,0.9243
787168,0.0056,-0.4342,0.9646
787191,-0.0114,-0.4280,0.9861
787215,-0.0503,-0.4104,1.0292
787238,-0.0715,-0.3992,1.0499
787260,-0.0934,-0.3865,1.0695
787314,-0.1779,-0.3254,1.1285
787338,-0.1957,-0.3091,1.1370
787361,-0.2112,-0.2930,1.1427
787383,-0.2344,-0.2631,1.1458
787402,-0.2416,-0.2498,1.1432
787425,-0.2457,-0.2379,1.1381
787447,-0.2458,-0.2189,1.1206
787470,-0.2422,-0.2115,1.1085
787500,-0.2297,-0.2014,1.0785
787523,-0.2216,-0.1984,1.0610
787547,-0.2034,-0.1958,1.0226
787570,-0.1940,-0.1960,1.0023
787592,-0.1847,-0.1971,0.9818
787610,-0.1759,-0.1990,0.9613
787630,-0.1600,-0.2042,0.9218
787650,-0.1532,-0.2075,0.9033
787673,-0.1472,-0.2113,0.8860
787690,-0.1422,-0.2153,0.8700
787712,-0.1345,-0.2246,0.8428
787754,-0.1295,-0.2354,0.8219
787778,-0.1262,-0.2480,0.8069
787802,-0.1250,-0.2554,0.8009
787825,-0.1241,-0.2634,0.7960
787847,-0.1233,-0.2820,0.7883
787864,-0.1232,-0.2921,0.7855
787889,-0.1229,-0.3025,0.7834
787911,-0.1222,-0.3240,0.7817
787945,-0.1198,-0.3453,0.7839
787968,-0.1174,-0.3556,0.7869
787991,-0.1143,-0.3654,0.7910
788012,-0.1045,-0.3835,0.8035
788035,-0.0979,-0.3918,0.8115
788059,-0.0811,-0.4064,0.8306
788083,-0.0709,-0.4127,0.8412
788101,-0.0601,-0.4183,0.8522
788142,-0.0229,-0.4309,0.8861
788164,-0.0098,-0.4337,0.8971
788189,0.0038,-0.4357,0.9080
788211,0.0310,-0.4373,0.9283
788257,0.0714,-0.4347,0.9548
788275,0.0842,-0.4330,0.9619
788299,0.0968,-0.4309,0.9679
788322,0.1086,-0.4287,0.9727
788363,0.1409,-0.4221,0.9784
788387,0.1503,-0.4202,0.9773
788405,0.1592,-0.4183,0.9747
788427,0.1755,-0.4153,0.9652
788450,0.1829,-0.4143,0.9586
788470,0.1896,-0.4137,0.9508
788492,0.2004,-0.4141,0.9319
788516,0.2041,-0.4153,0.9210
788540,0.2058,-0.4207,0.8972
788562,0.2034,-0.4253,0.8848
788587,0.1984,-0.4314,0.8723
788609,0.1808,-0.4479,0.8492
788630,0.1685,-0.4579,0.8391
788652,0.1539,-0.4690,0.8302
788689,0.1003,-0.5056,0.8114
788706,0.0801,-0.5182,0.8074
788732,0.0591,-0.5303,0.8042
788755,0.0159,-0.5532,0.7997
788777,-0.0057,-0.5636,0.7980
788800,-0.0270,-0.5730,0.7965
788822,-0.0674,-0.5890,0.7941
788839,-0.0861,-0.5953,0.7930
788862,-0.1036,-0.6006,0.7920
788884,-0.1199,-0.6045,0.7910
788901,-0.1346,-0.6074,0.7900
788919,-0.1479,-0.6093,0.7889
788941,-0.1696,-0.6100,0.7866
788993,-0.1888,-0.6061,0.7838
789016,-0.1917,-0.6040,0.7832
789033,-0.1929,-0.6017,0.7828
789054,-0.1908,-0.5974,0.7834
789077,-0.1877,-0.5953,0.7844
789100,-0.1836,-0.5935,0.7860
789117,-0.1783,-0.5916,0.7883
789139,-0.1652,-0.5868,0.7948
789179,-0.1487,-0.5802,0.8038
789202,-0.1298,-0.5712,0.8147
789226,-0.1196,-0.5657,0.8207
789249,-0.1091,-0.5597,0.8268
789271,-0.0872,-0.5458,0.8392
789288,-0.0759,-0.5382,0.8453
789319,-0.0529,-0.5221,0.8571
789337,-0.0414,-0.5140,0.8624
789385,-0.0079,-0.4917,0.8755
789407,0.0024,-0.4854,0.8787
789425,0.0120,-0.4799,0.8810
789447,0.0208,-0.4751,0.8827
789469,0.0354,-0.4683,0.8839
789486,0.0410,-0.4659,0.8835
789509,0.0454,-0.4645,0.8824
789533,0.0500,-0.4633,0.8784
789561,0.0503,-0.4634,0.8756
789582,0.0492,-0.4640,0.8722
789618,0.0380,-0.4674,0.8607
789638,0.0320,-0.4690,0.8569
789659,0.0250,-0.4707,0.8533
789681,0.0172,-0.4727,0.8499
789702,0.0000,-0.4768,0.8447
789725,-0.0092,-0.4791,0.8430
789752,-0.0277,-0.4841,0.8414
789775,-0.0370,-0.4871,0.8416
789799,-0.0546,-0.4933,0.8434
789821,-0.0629,-0.4966,0.8451
789844,-0.0707,-0.4999,0.8473
789861,-0.0779,-0.5032,0.8499
789883,-0.0903,-0.5090,0.8558
789928,-0.0996,-0.5128,0.8623
789956,-0.1058,-0.5134,0.8679
789979,-0.1079,-0.5123,0.8701
790003,-0.1105,-0.5076,0.8723
790026,-0.1115,-0.5040,0.8723
790048,-0.1129,-0.4955,0.8704
790070,-0.1136,-0.4908,0.8687
790091,-0.1147,-0.4861,0.8666
790113,-0.1178,-0.4769,0.8622
790137,-0.1200,-0.4727,0.8601
790155,-0.1229,-0.4686,0.8584
790177,-0.1262,-0.4651,0.8571
790216,-0.1401,-0.4558,0.8567
790240,-0.1459,-0.4530,0.8578
790275,-0.1586,-0.4469,0.8612
790292,-0.1654,-0.4436,0.8633
790314,-0.1797,-0.4355,0.8680
790333,-0.1868,-0.4309,0.8705
790350,-0.1936,-0.4258,0.8730
790373,-0.2002,-0.4203,0.8755
790428,-0.2209,-0.3950,0.8853
790450,-0.2241,-0.3885,0.8876
790467,-0.2266,-0.3822,0.8898
790490,-0.2279,-0.3761,0.8918
790512,-0.2283,-0.3655,0.8950
790541,-0.2272,-0.3611,0.8961
790565,-0.2233,-0.3542,0.8973
790600,-0.2177,-0.3500,0.8972
790623,-0.2145,-0.3489,0.8967
790645,-0.2083,-0.3483,0.8950
790668,-0.2054,-0.3486,0.8937
790688,-0.2030,-0.3496,0.8922
790712,-0.1998,-0.3528,0.8889
790735,-0.1993,-0.3551,0.8871
790757,-0.1996,-0.3577,0.8854
790791,-0.2024,-0.3662,0.8810
790814,-0.2079,-0.3688,0.8799
790855,-0.2153,-0.3727,0.8785
790878,-0.2234,-0.3744,0.8790
790903,-0.2271,-0.3743,0.8800
790925,-0.2332,-0.3724,0.8838
790947,-0.2352,-0.3707,0.8866
790964,-0.2366,-0.3688,0.8898
790982,-0.2371,-0.3667,0.8934
791004,-0.2368,-0.3646,0.8972
791043,-0.2314,-0.3596,0.9088
791065,-0.2284,-0.3586,0.9125
791087,-0.2249,-0.3580,0.9158
791104,-0.2208,-0.3578,0.9187
791125,-0.2115,-0.3584,0.9232
791156,-0.2015,-0.3605,0.9253
791175,-0.1964,-0.3619,0.9254
791198,-0.1912,-0.3636,0.9248
791220,-0.1859,-0.3655,0.9236
791245,-0.1747,-0.3698,0.9193
791268,-0.1687,-0.3722,0.9163
791292,-0.1553,-0.3785,0.9087
791315,-0.1478,-0.3827,0.9043
791337,-0.1400,-0.3878,0.8998
791354,-0.1318,-0.3939,0.8953
791378,-0.1147,-0.4093,0.8866
791401,-0.1058,-0.4182,0.8826
791449,-0.0774,-0.4463,0.8729
791473,-0.0565,-0.4640,0.8684
791490,-0.0454,-0.4722,0.8669
791513,-0.0338,-0.4799,0.8660
791534,-0.0217,-0.4868,0.8656
791551,-0.0093,-0.4932,0.8656
791573,0.0160,-0.5038,0.8672
791590,0.0286,-0.5079,0.8683
791622,0.0520,-0.5142,0.8706
791645,0.0627,-0.5162,0.8715
791665,0.0725,-0.5177,0.8721
791684,0.0812,-0.5186,0.8722
791705,0.0947,-0.5187,0.8702
791728,0.0992,-0.5181,0.8678
791745,0.1023,-0.5168,0.8643
791775,0.1035,-0.5129,0.8534
791792,0.1017,-0.5105,0.8458
791818,0.0670,-0.5050,0.8269
791841,0.0865,-0.5021,0.8158
791866,0.0784,-0.4991,0.8037
791888,0.0581,-0.4932,0.7782
791911,0.0463,-0.4904,0.7653
791928,0.0336,-0.4877,0.7526
791950,0.0203,-0.4851,0.7405
791971,-0.0071,-0.4811,0.7188
792005,-0.0341,-0.4786,0.7017
792028,-0.0469,-0.4783,0.6952
792052,-0.0703,-0.4794,0.6873
792083,-0.0808,-0.4825,0.6866
792106,-0.0990,-0.4850,0.6893
792123,-0.1068,-0.4880,0.6942
792145,-0.1136,-0.4917,0.7014
792167,-0.1241,-0.5007,0.7233
792184,-0.1277,-0.5057,0.7379
792201,-0.1300,-0.5111,0.7551
792223,-0.1312,-0.5167,0.7747
792255,-0.1307,-0.5280,0.8198
792288,-0.1273,-0.5385,0.8708
792308,-0.1246,-0.5431,0.8975
792331,-0.1212,-0.5472,0.9241
792353,-0.1130,-0.5538,0.9747
792386,-0.1035,-0.5581,1.0173
792404,-0.0988,-0.5591,1.0339
792427,-0.0942,-0.5591,1.0468
792475,-0.0830,-0.5527,1.0597
792500,-0.0781,-0.5435,1.0466
792523,-0.0764,-0.5376,1.0344
792545,-0.0751,-0.5315,1.0192
792595,-0.0725,-0.5125,0.9619
792614,-0.0713,-0.5009,0.9218
792643,-0.0707,-0.4956,0.9031
792665,-0.0693,-0.4858,0.8717
792689,-0.0685,-0.4813,0.8597
792707,-0.0675,-0.4771,0.8505
792728,-0.0662,-0.4729,0.8439
792749,-0.0627,-0.4648,0.8385
792768,-0.0605,-0.4608,0.8392
792790,-0.0581,-0.4568,0.8417
792807,-0.0552,-0.4526,0.8455
792849,-0.0441,-0.4412,0.8619
792872,-0.0393,-0.4380,0.8683
792896,-0.0282,-0.4335,0.8807
792918,-0.0217,-0.4324,0.8867
792941,-0.0148,-0.4319,0.8923
792967,0.0010,-0.4333,0.9023
792991,0.0096,-0.4353,0.9067
793009,0.0188,-0.4379,0.9106
793050,0.0481,-0.4493,0.9196
793073,0.0580,-0.4539,0.9215
793097,0.0773,-0.4630,0.9238
793120,0.0862,-0.4673,0.9241
793142,0.0945,-0.4712,0.9238
793159,0.1021,-0.4746,0.9230
793181,0.1147,-0.4791,0.9200
793204,0.1198,-0.4802,0.9178
793241,0.1270,-0.4799,0.9122
793264,0.1306,-0.4767,0.9048
793295,0.1310,-0.4717,0.8954
793312,0.1301,-0.4690,0.8901
793335,0.1285,-0.4664,0.8848
793357,0.1262,-0.4644,0.8792
793374,0.1233,-0.4629,0.8737
793396,0.1150,-0.4628,0.8630
793422,0.1095,-0.4645,0.8580
793472,0.0864,-0.4800,0.8436
793497,0.0640,-0.5018,0.8344
793520,0.0502,-0.5167,0.8297
793542,0.0171,-0.5543,0.8197
793559,-0.0021,-0.5765,0.8141
793593,-0.0450,-0.6257,0.8014
793617,-0.0684,-0.6519,0.7943
793647,-0.1168,-0.7037,0.7791
793669,-0.1410,-0.7285,0.7712
793692,-0.1864,-0.7725,0.7554
793715,-0.2068,-0.7906,0.7476
793735,-0.2251,-0.8057,0.7395
793759,-0.2550,-0.8252,0.7231
793782,-0.2664,-0.8291,0.7146
793804,-0.2753,-0.8291,0.7059
793824,-0.2865,-0.8181,0.6879
793841,-0.2889,-0.8079,0.6787
793863,-0.2894,-0.7949,0.6696
793922,-0.2772,-0.7281,0.6356
793945,-0.2716,-0.7103,0.6285
793969,-0.2653,-0.6932,0.6224
793991,-0.2513,-0.6619,0.6139
794016,-0.2439,-0.6479,0.6119
794040,-0.2277,-0.6233,0.6133
794063,-0.2190,-0.6123,0.6168
794109,-0.1908,-0.5848,0.6373
794132,-0.1808,-0.5775,0.6470
794149,-0.1705,-0.5709,0.6581
794171,-0.1490,-0.5604,0.6837
794202,-0.1377,-0.5564,0.6981
794220,-0.1262,-0.5531,0.7133
794244,-0.1029,-0.5487,0.7449
794267,-0.0913,-0.5475,0.7611
794304,-0.0590,-0.5472,0.8081
794328,-0.0492,-0.5479,0.8226
794348,-0.0402,-0.5487,0.8362
794370,-0.0247,-0.5507,0.8600
794392,-0.0183,-0.5516,0.8696
794409,-0.0129,-0.5526,0.8777
794432,-0.0088,-0.5533,0.8842
794456,-0.0035,-0.5538,0.8920
794501,-0.0021,-0.5526,0.8923
794529,-0.0039,-0.5496,0.8899
794547,-0.0059,-0.5472,0.8867
794587,-0.0139,-0.5381,0.8735
794609,-0.0172,-0.5345,0.8688
794630,-0.0206,-0.5309,0.8640
794650,-0.0242,-0.5273,0.8596
794687,-0.0347,-0.5176,0.8484
794707,-0.0381,-0.5150,0.8456
794732,-0.0414,-0.5128,0.8431
794752,-0.0476,-0.5095,0.8398
794772,-0.0505,-0.5085,0.8389
794797,-0.0531,-0.5079,0.8383
794828,-0.0579,-0.5078,0.8380
794851,-0.0619,-0.5090,0.8386
794884,-0.0653,-0.5115,0.8396
794906,-0.0668,-0.5129,0.8401
794923,-0.0682,-0.5145,0.8405
794944,-0.0695,-0.5164,0.8408
794963,-0.0706,-0.5182,0.8409
794986,-0.0725,-0.5217,0.8407
795009,-0.0734,-0.5234,0.8402
795031,-0.0741,-0.5250,0.8396
795048,-0.0747,-0.5266,0.8386
795065,-0.0754,-0.5293,0.8361
795087,-0.0756,-0.5305,0.8344
795130,-0.0753,-0.5326,0.8303
795154,-0.0746,-0.5342,0.8257
795179,-0.0740,-0.5348,0.8231
795201,-0.0725,-0.5355,0.8180
795224,-0.0717,-0.5356,0.8152
795241,-0.0707,-0.5355,0.8124
795265,-0.0684,-0.5349,0.8066
795285,-0.0671,-0.5345,0.8036
795320,-0.0643,-0.5337,0.7976
795343,-0.0626,-0.5336,0.7948
795367,-0.0580,-0.5343,0.7898
795390,-0.0549,-0.5356,0.7876
795412,-0.0511,-0.5377,0.7856
795436,-0.0411,-0.5442,0.7825
795460,-0.0350,-0.5487,0.7812
795479,-0.0280,-0.5538,0.7803
795537,0.0072,-0.5801,0.7776
795560,0.0173,-0.5876,0.7772
795577,0.0277,-0.5952,0.7769
795599,0.0491,-0.6101,0.7764
795623,0.0598,-0.6172,0.7764
795645,0.0811,-0.6300,0.7765
795667,0.0914,-0.6356,0.7764
795690,0.1013,-0.6406,0.7760
795718,0.1200,-0.6490,0.7740
795741,0.1287,-0.6526,0.7722
795764,0.1443,-0.6588,0.7657
795781,0.1514,-0.6616,0.7609
795802,0.1577,-0.6647,0.7545
795824,0.1632,-0.6680,0.7466
795841,0.1678,-0.6718,0.7372
795863,0.1740,-0.6816,0.7137
795880,0.1754,-0.6881,0.7003
795922,0.1744,-0.7051,0.6716
795945,0.1683,-0.7281,0.6426
795972,0.1632,-0.7421,0.6283
795994,0.1482,-0.7744,0.6010
796016,0.1382,-0.7927,0.5879
796033,0.1263,-0.8120,0.5750
796071,0.0972,-0.8531,0.5493
796089,0.0798,-0.8745,0.5361
796117,0.0406,-0.9180,0.5084
796140,0.0193,-0.9393,0.4938
796164,-0.0253,-0.9803,0.4630
796187,-0.0477,-0.9995,0.4473
796209,-0.0908,-1.0342,0.4156
796226,-0.1106,-1.0490,0.4001
796248,-0.1290,-1.0614,0.3850
796271,-0.1455,-1.0713,0.3705
796288,-0.1602,-1.0784,0.3567
796314,-0.1832,-1.0826,0.3315
796338,-0.1920,-1.0798,0.3203
796375,-0.2095,-1.0526,0.2924
796403,-0.2129,-1.0385,0.2850
796421,-0.2155,-1.0223,0.2787
796443,-0.2178,-0.9857,0.2687
796466,-0.2175,-0.9659,0.2650
796483,-0.2166,-0.9457,0.2621
796501,-0.2146,-0.9254,0.2600
796523,-0.2080,-0.8865,0.2582
796581,-0.1921,-0.8383,0.2627
796604,-0.1855,-0.8260,0.2664
796621,-0.1782,-0.8160,0.2714
796642,-0.1625,-0.8025,0.2849
796662,-0.1542,-0.7988,0.2937
796701,-0.1365,-0.7968,0.3151
796719,-0.1272,-0.7981,0.3275
796761,-0.0992,-0.8097,0.3705
796784,-0.0901,-0.8158,0.3859
796807,-0.0723,-0.8307,0.4172
796830,-0.0638,-0.8394,0.4329
796852,-0.0557,-0.8485,0.4480
796876,-0.0406,-0.8671,0.4763
796898,-0.0339,-0.8759,0.4890
796915,-0.0281,-0.8839,0.5006
796957,-0.0159,-0.9017,0.5267
796980,-0.0138,-0.9053,0.5323
797003,-0.0128,-0.9087,0.5392
797023,-0.0139,-0.9086,0.5406
797046,-0.0157,-0.9075,0.5409
797068,-0.0184,-0.9053,0.5400
797085,-0.0220,-0.9022,0.5381
797107,-0.0308,-0.8937,0.5317
797124,-0.0359,-0.8884,0.5276
797159,-0.0469,-0.8766,0.5182
797182,-0.0525,-0.8704,0.5132
797206,-0.0635,-0.8579,0.5035
797229,-0.0685,-0.8521,0.4991
797251,-0.0734,-0.8466,0.4952
797268,-0.0818,-0.8369,0.4893
797305,-0.0887,-0.8293,0.4857
797349,-0.0942,-0.8239,0.4850
797372,-0.0983,-0.8204,0.4868
797396,-0.1000,-0.8195,0.4884
797418,-0.1027,-0.8185,0.4929
797440,-0.1036,-0.8184,0.4955
797457,-0.1045,-0.8186,0.4984
797480,-0.1052,-0.8191,0.5013
797502,-0.1060,-0.8207,0.5076
797519,-0.1060,-0.8218,0.5106
797537,-0.1057,-0.8230,0.5137
797560,-0.1052,-0.8242,0.5166
797618,-0.1010,-0.8295,0.5261
797645,-0.0992,-0.8308,0.5277
797662,-0.0974,-0.8320,0.5289
797684,-0.0930,-0.8342,0.5303
797704,-0.0906,-0.8353,0.5304
797721,-0.0879,-0.8364,0.5302
797738,-0.0852,-0.8375,0.5297
797761,-0.0825,-0.8385,0.5287
797803,-0.0745,-0.8414,0.5240
797826,-0.0720,-0.8423,0.5219
797849,-0.0676,-0.8440,0.5168
797870,-0.0658,-0.8447,0.5142
797893,-0.0641,-0.8455,0.5114
797917,-0.0609,-0.8470,0.5060
797949,-0.0579,-0.8488,0.5013
797972,-0.0563,-0.8497,0.4994
798000,-0.0530,-0.8517,0.4966
798023,-0.0513,-0.8524,0.4957
798047,-0.0482,-0.8536,0.4952
798069,-0.0470,-0.8538,0.4956
798092,-0.0459,-0.8536,0.4965
798112,-0.0452,-0.8531,0.4976
798136,-0.0446,-0.8507,0.5011
798159,-0.0447,-0.8489,0.5034
798194,-0.0461,-0.8440,0.5092
798217,-0.0490,-0.8376,0.5164
798258,-0.0529,-0.8302,0.5248
798281,-0.0574,-0.8223,0.5339
798306,-0.0599,-0.8182,0.5387
798331,-0.0652,-0.8102,0.5480
798354,-0.0680,-0.8060,0.5525
798398,-0.0771,-0.7935,0.5636
798421,-0.0803,-0.7891,0.5663
798445,-0.0863,-0.7809,0.5695
798467,-0.0889,-0.7775,0.5697
798490,-0.0909,-0.7749,0.5691
798507,-0.0925,-0.7733,0.5675
798529,-0.0935,-0.7742,0.5614
798559,-0.0912,-0.7806,0.5515
798604,-0.0856,-0.7922,0.5385
798625,-0.0815,-0.7997,0.5311
798642,-0.0768,-0.8080,0.5236
798663,-0.0657,-0.8265,0.5084
798685,-0.0594,-0.8363,0.5013
798702,-0.0532,-0.8459,0.4946
798724,-0.0468,-0.8553,0.4885
798748,-0.0341,-0.8723,0.4786
798783,-0.0211,-0.8864,0.4719
798806,-0.0144,-0.8921,0.4697
798830,-0.0004,-0.9001,0.4678
798857,0.0066,-0.9022,0.4681
798878,0.0199,-0.9017,0.4713
798895,0.0258,-0.8992,0.4740
798918,0.0311,-0.8951,0.4773
798940,0.0358,-0.8898,0.4811
798978,0.0460,-0.8678,0.4938
799001,0.0482,-0.8593,0.4982
799025,0.0510,-0.8419,0.5072
799048,0.0519,-0.8331,0.5117
799070,0.0521,-0.8246,0.5165
799087,0.0522,-0.8162,0.5215
799109,0.0518,-0.8004,0.5322
799132,0.0514,-0.7930,0.5380
799170,0.0510,-0.7789,0.5505
799189,0.0518,-0.7654,0.5642
799243,0.0554,-0.7462,0.5856
799266,0.0574,-0.7401,0.5929
799283,0.0598,-0.7345,0.6005
799305,0.0657,-0.7245,0.6163
799327,0.0691,-0.7203,0.6245
799344,0.0728,-0.7169,0.6328
799366,0.0765,-0.7144,0.6412
799389,0.0842,-0.7115,0.6575
799418,0.0880,-0.7115,0.6652
799441,0.0946,-0.7139,0.6790
799465,0.0974,-0.7162,0.6851
799483,0.0997,-0.7192,0.6906
799505,0.1030,-0.7268,0.6993
799527,0.1039,-0.7313,0.7026
799545,0.1041,-0.7360,0.7052
799567,0.1039,-0.7408,0.7070
799585,0.1029,-0.7458,0.7083
799637,0.0927,-0.7667,0.7070
799657,0.0885,-0.7722,0.7052
799674,0.0839,-0.7781,0.7029
799696,0.0786,-0.7843,0.6996
799717,0.0728,-0.7910,0.6953
799734,0.0663,-0.7986,0.6897
799771,0.0425,-0.8268,0.6638
799788,0.0328,-0.8383,0.6519
799817,0.0223,-0.8508,0.6384
799839,-0.0010,-0.8782,0.6083
799864,-0.0137,-0.8926,0.5924
799886,-0.0403,-0.9215,0.5608
799909,-0.0542,-0.9353,0.5458
799933,-0.0684,-0.9480,0.5312
799955,-0.0966,-0.9688,0.5045
799978,-0.1104,-0.9760,0.4922
799997,-0.1237,-0.9806,0.4805
800019,-0.1488,-0.9819,0.4590
800042,-0.1604,-0.9785,0.4490
800069,-0.1810,-0.9646,0.4307
800093,-0.1899,-0.9545,0.4225
800118,-0.2045,-0.9299,0.4078
800141,-0.2100,-0.9165,0.4016
800163,-0.2141,-0.9026,0.3961
800180,-0.2169,-0.8889,0.3916
800204,-0.2180,-0.8630,0.3860
800227,-0.2161,-0.8512,0.3850
800265,-0.2002,-0.8231,0.3893
800288,-0.1917,-0.8164,0.3926
800312,-0.1816,-0.8112,0.3966
800344,-0.1577,-0.8053,0.4060
800367,-0.1305,-0.8051,0.4165
800403,-0.1017,-0.8101,0.4275
800420,-0.0874,-0.8141,0.4330
800455,-0.0607,-0.8245,0.4437
800478,-0.0486,-0.8303,0.4489
800502,-0.0281,-0.8429,0.4586
800525,-0.0199,-0.8491,0.4630
800547,-0.0081,-0.8606,0.4708
800564,-0.0045,-0.8655,0.4741
800586,-0.0024,-0.8698,0.4771
800609,-0.0018,-0.8733,0.4795
800664,-0.0117,-0.8792,0.4851
800684,-0.0166,-0.8788,0.4855
800710,-0.0221,-0.8776,0.4855
800732,-0.0343,-0.8738,0.4845
800757,-0.0408,-0.8712,0.4835
800779,-0.0536,-0.8655,0.4810
800801,-0.0598,-0.8624,0.4794
800846,-0.0765,-0.8539,0.4747
800868,-0.0813,-0.8516,0.4734
800885,-0.0854,-0.8495,0.4720
800918,-0.0920,-0.8466,0.4696
800941,-0.0945,-0.8456,0.4686
800964,-0.0977,-0.8448,0.4669
800987,-0.0985,-0.8448,0.4663
801010,-0.0986,-0.8456,0.4651
801030,-0.0983,-0.8462,0.4645
801053,-0.0974,-0.8468,0.4639
801075,-0.0966,-0.8475,0.4629
801102,-0.0942,-0.8492,0.4596
801125,-0.0931,-0.8505,0.4569
801149,-0.0909,-0.8542,0.4486
801172,-0.0901,-0.8571,0.4427
801194,-0.0889,-0.8646,0.4269
801211,-0.0885,-0.8695,0.4169
801236,-0.0885,-0.8750,0.4055
801258,-0.0889,-0.8809,0.3931
801296,-0.0916,-0.9006,0.3518
801331,-0.0946,-0.9142,0.3237
801348,-0.0963,-0.9208,0.3104
801371,-0.0983,-0.9269,0.2980
801392,-0.1022,-0.9377,0.2761
801409,-0.1041,-0.9423,0.2671
801431,-0.1061,-0.9460,0.2596
801448,-0.1079,-0.9492,0.2535
801483,-0.1111,-0.9534,0.2461
801506,-0.1124,-0.9542,0.2448
801530,-0.1146,-0.9541,0.2465
801553,-0.1152,-0.9531,0.2494
801575,-0.1156,-0.9493,0.2584
801592,-0.1154,-0.9469,0.2645
801617,-0.1147,-0.9440,0.2712
801641,-0.1125,-0.9379,0.2866
801692,-0.1071,-0.9290,0.3118
801712,-0.1050,-0.9263,0.3201
801736,-0.1028,-0.9237,0.3281
801757,-0.0989,-0.9187,0.3430
801778,-0.0973,-0.9163,0.3500
801802,-0.0959,-0.9137,0.3566
801824,-0.0940,-0.9086,0.3688
801869,-0.0931,-0.9034,0.3801
801892,-0.0934,-0.8983,0.3906
801938,-0.0956,-0.8894,0.4048
801959,-0.0967,-0.8861,0.4092
801976,-0.0977,-0.8826,0.4133
801999,-0.0986,-0.8790,0.4174
802021,-0.0999,-0.8713,0.4249
802038,-0.1001,-0.8673,0.4283
802055,-0.0999,-0.8632,0.4315
802077,-0.0992,-0.8590,0.4346
802120,-0.0939,-0.8466,0.4429
802142,-0.0906,-0.8425,0.4458
802167,-0.0865,-0.8387,0.4489
802189,-0.0757,-0.8315,0.4559
802212,-0.0692,-0.8284,0.4601
802232,-0.0623,-0.8256,0.4646
802250,-0.0548,-0.8230,0.4696
802267,-0.0471,-0.8208,0.4750
802288,-0.0319,-0.8171,0.4873
802323,-0.0173,-0.8145,0.5015
802356,-0.0040,-0.8125,0.5170
802378,0.0021,-0.8116,0.5253
802401,0.0079,-0.8108,0.5338
802420,0.0195,-0.8085,0.5515
802437,0.0254,-0.8068,0.5608
802462,0.0314,-0.8048,0.5701
802484,0.0376,-0.8025,0.5795
802519,0.0575,-0.7939,0.6077
802543,0.0643,-0.7916,0.6171
802568,0.0776,-0.7900,0.6356
802590,0.0835,-0.7916,0.6445
802613,0.0886,-0.7953,0.6532
802631,0.0927,-0.8011,0.6613
802651,0.0972,-0.8190,0.6750
802668,0.0974,-0.8303,0.6802
802725,0.0880,-0.8704,0.6809
802748,0.0804,-0.8848,0.6742
802765,0.0703,-0.8993,0.6632
802786,0.0425,-0.9283,0.6284
802809,0.0250,-0.9424,0.6050
802826,0.0056,-0.9559,0.5782
802849,-0.0385,-0.9807,0.5166
802873,-0.0623,-0.9917,0.4832
802902,-0.1115,-1.0103,0.4144
802925,-0.1360,-1.0176,0.3806
802948,-0.1599,-1.0234,0.3478
802970,-0.2052,-1.0299,0.2874
802993,-0.2257,-1.0302,0.2605
803010,-0.2448,-1.0282,0.2361
803032,-0.2770,-1.0177,0.1958
803054,-0.2900,-1.0093,0.1801
803071,-0.3010,-0.9991,0.1674
803089,-0.3097,-0.9874,0.1578
803111,-0.3162,-0.9745,0.1512
803153,-0.3219,-0.9320,0.1487
803177,-0.3196,-0.9181,0.1531
803202,-0.3090,-0.8925,0.1680
803225,-0.3009,-0.8816,0.1781
803245,-0.2913,-0.8723,0.1897
803269,-0.2673,-0.8586,0.2162
803286,-0.2533,-0.8542,0.2307
803309,-0.2379,-0.8511,0.2458
803351,-0.1857,-0.8483,0.2916
803374,-0.1670,-0.8492,0.3063
803401,-0.1293,-0.8536,0.3334
803424,-0.1107,-0.8569,0.3457
803444,-0.0925,-0.8611,0.3571
803461,-0.0751,-0.8657,0.3674
803484,-0.0432,-0.8768,0.3851
803501,-0.0291,-0.8828,0.3926
803544,0.0040,-0.9006,0.4086
803567,0.0117,-0.9060,0.4121
803592,0.0176,-0.9109,0.4148
803614,0.0244,-0.9189,0.4182
803635,0.0255,-0.9219,0.4189
803659,0.0251,-0.9242,0.4193
803699,0.0170,-0.9270,0.4180
803753,0.0018,-0.9243,0.4148
803791,-0.0098,-0.9203,0.4124
803809,-0.0156,-0.9178,0.4113
803831,-0.0269,-0.9125,0.4092
803854,-0.0320,-0.9097,0.4081
803871,-0.0369,-0.9070,0.4071
803893,-0.0453,-0.9019,0.4053
803910,-0.0488,-0.8994,0.4045
803945,-0.0549,-0.8953,0.4032
803965,-0.0574,-0.8934,0.4028
803990,-0.0596,-0.8917,0.4026
804010,-0.0632,-0.8890,0.4026
804031,-0.0647,-0.8881,0.4030
804056,-0.0659,-0.8872,0.4034
804093,-0.0690,-0.8856,0.4060
804138,-0.0708,-0.8850,0.4086
804161,-0.0725,-0.8845,0.4119
804178,-0.0734,-0.8840,0.4138
804201,-0.0745,-0.8835,0.4161
804223,-0.0756,-0.8829,0.4187
804240,-0.0769,-0.8821,0.4216
804261,-0.0796,-0.8800,0.4282
804284,-0.0811,-0.8787,0.4319
804301,-0.0826,-0.8771,0.4357
804325,-0.0853,-0.8734,0.4437
804348,-0.0865,-0.8712,0.4479
804404,-0.0890,-0.8623,0.4595
804432,-0.0892,-0.8544,0.4663
804453,-0.0889,-0.8499,0.4695
804474,-0.0868,-0.8403,0.4752
804497,-0.0850,-0.8354,0.4780
804517,-0.0824,-0.8304,0.4807
804534,-0.0791,-0.8256,0.4835
804556,-0.0702,-0.8167,0.4893
804591,-0.0585,-0.8097,0.4955
804616,-0.0515,-0.8071,0.4988
804638,-0.0356,-0.8037,0.5062
804660,-0.0270,-0.8027,0.5103
804681,-0.0178,-0.8021,0.5144
804705,0.0006,-0.8013,0.5227
804729,0.0098,-0.8009,0.5267
804747,0.0186,-0.8002,0.5304
804806,0.0490,-0.7933,0.5428
804829,0.0552,-0.7903,0.5458
804846,0.0610,-0.7866,0.5487
804868,0.0665,-0.7823,0.5521
804890,0.0774,-0.7729,0.5607
804907,0.0831,-0.7683,0.5662
804930,0.0891,-0.7643,0.5729
804947,0.0956,-0.7614,0.5806
804982,0.1094,-0.7603,0.5995
805004,0.1224,-0.7679,0.6217
805035,0.1311,-0.7852,0.6447
805053,0.1324,-0.7970,0.6554
805075,0.1311,-0.8108,0.6647
805098,0.1265,-0.8260,0.6721
805115,0.1184,-0.8429,0.6772
805137,0.0907,-0.8801,0.6782
805154,0.0709,-0.9000,0.6733
805189,0.0203,-0.9408,0.6525
805212,-0.0098,-0.9607,0.6365
805235,-0.0762,-0.9979,0.5950
805257,-0.1111,-1.0144,0.5703
805280,-0.1459,-1.0291,0.5438
805297,-0.1798,-1.0415,0.5160
805319,-0.2418,-1.0593,0.4584
805343,-0.2684,-1.0642,0.4296
805381,-0.3103,-1.0652,0.3741
805404,-0.3351,-1.0541,0.3236
805429,-0.3407,-1.0442,0.3010
805451,-0.3395,-1.0170,0.2616
805474,-0.3333,-1.0005,0.2450
805498,-0.3239,-0.9825,0.2308
805520,-0.2976,-0.9442,0.2094
805543,-0.2817,-0.9247,0.2023
805565,-0.2648,-0.9058,0.1976
805587,-0.2292,-0.8710,0.1960
805610,-0.2117,-0.8558,0.1989
805637,-0.1786,-0.8318,0.2119
805661,-0.1637,-0.8229,0.2217
805684,-0.1384,-0.8110,0.2474
805704,-0.1282,-0.8079,0.2628
805726,-0.1195,-0.8062,0.2795
805750,-0.1067,-0.8070,0.3159
805768,-0.1023,-0.8091,0.3350
805791,-0.0992,-0.8121,0.3541
805849,-0.0946,-0.8298,0.4265
805872,-0.0940,-0.8350,0.4426
805889,-0.0933,-0.8401,0.4575
805911,-0.0922,-0.8452,0.4711
805933,-0.0884,-0.8556,0.4937
805966,-0.0824,-0.8658,0.5099
805983,-0.0787,-0.8707,0.5155
806026,-0.0706,-0.8801,0.5217
806048,-0.0621,-0.8881,0.5220
806073,-0.0582,-0.8912,0.5200
806095,-0.0547,-0.8939,0.5170
806137,-0.0468,-0.8987,0.5024
806161,-0.0452,-0.8992,0.4965
806178,-0.0443,-0.8992,0.4902
806200,-0.0443,-0.8977,0.4775
806238,-0.0466,-0.8947,0.4655
806266,-0.0511,-0.8903,0.4543
806283,-0.0542,-0.8877,0.4492
806306,-0.0576,-0.8848,0.4446
806328,-0.0654,-0.8787,0.4368
806345,-0.0695,-0.8755,0.4337
806367,-0.0735,-0.8723,0.4312
806384,-0.0774,-0.8694,0.4292
806429,-0.0876,-0.8619,0.4264
806453,-0.0905,-0.8601,0.4265
806473,-0.0929,-0.8588,0.4270
806495,-0.0968,-0.8572,0.4292
806518,-0.0983,-0.8568,0.4309
806535,-0.0994,-0.8567,0.4331
806571,-0.1010,-0.8567,0.4387
806609,-0.1010,-0.8561,0.4512
806630,-0.1005,-0.8553,0.4563
806655,-0.0997,-0.8542,0.4618
806675,-0.0989,-0.8525,0.4675
806696,-0.0964,-0.8477,0.4795
806719,-0.0950,-0.8445,0.4855
806740,-0.0933,-0.8407,0.4915
806761,-0.0890,-0.8322,0.5028
806786,-0.0862,-0.8274,0.5081
806804,-0.0831,-0.8224,0.5131
806826,-0.0758,-0.8118,0.5225
806885,-0.0620,-0.7959,0.5356
806909,-0.0514,-0.7870,0.5448
806926,-0.0459,-0.7836,0.5498
806946,-0.0404,-0.7809,0.5551
806967,-0.0349,-0.7789,0.5605
806984,-0.0294,-0.7780,0.5664
807001,-0.0242,-0.7780,0.5725
807023,-0.0139,-0.7804,0.5847
807065,-0.0044,-0.7860,0.5961
807087,0.0001,-0.7897,0.6010
807111,0.0092,-0.7975,0.6085
807134,0.0138,-0.8011,0.6110
807156,0.0233,-0.8064,0.6133
807173,0.0286,-0.8073,0.6132
807210,0.0405,-0.8043,0.6110
807227,0.0472,-0.8003,0.6094
807256,0.0620,-0.7874,0.6057
807278,0.0701,-0.7791,0.6042
807303,0.0782,-0.7699,0.6033
807325,0.0945,-0.7513,0.6035
807348,0.1018,-0.7432,0.6050
807365,0.1083,-0.7362,0.6073
807387,0.1134,-0.7310,0.6106
807409,0.1176,-0.7273,0.6196
807446,0.1117,-0.7336,0.6306
807469,0.1039,-0.7407,0.6359
807493,0.0771,-0.7626,0.6434
807517,0.0575,-0.7770,0.6445
807540,0.0057,-0.8116,0.6396
807557,-0.0258,-0.8313,0.6335
807579,-0.0601,-0.8521,0.6250
807600,-0.0964,-0.8735,0.6144
807624,-0.1713,-0.9169,0.5883
807647,-0.2076,-0.9380,0.5735
807668,-0.2421,-0.9581,0.5579
807713,-0.3248,-1.0076,0.5094
807736,-0.3571,-1.0259,0.4769
807753,-0.3656,-1.0294,0.4607
807775,-0.3690,-1.0292,0.4446
807798,-0.3679,-1.0250,0.4286
807825,-0.3531,-1.0057,0.3972
807873,-0.3091,-0.9557,0.3540
807898,-0.2910,-0.9355,0.3413
807920,-0.2528,-0.8938,0.3204
807943,-0.2336,-0.8734,0.3126
807967,-0.1965,-0.8367,0.3033
807989,-0.1790,-0.8210,0.3021
808012,-0.1622,-0.8076,0.3032
808029,-0.1464,-0.7965,0.3068
808046,-0.1311,-0.7877,0.3126
808068,-0.1023,-0.7765,0.3308
808103,-0.0747,-0.7733,0.3560
808127,-0.0613,-0.7744,0.3705
808152,-0.0350,-0.7821,0.4021
808174,-0.0223,-0.7886,0.4186
808196,-0.0098,-0.7969,0.4351
808220,0.0142,-0.8177,0.4672
808245,0.0254,-0.8300,0.4819
808267,0.0449,-0.8560,0.5078
808302,0.0597,-0.8817,0.5272
808325,0.0648,-0.8937,0.5342
808349,0.0704,-0.9139,0.5426
808371,0.0708,-0.9219,0.5443
808394,0.0696,-0.9280,0.5446
808411,0.0670,-0.9324,0.5435
808444,0.0579,-0.9355,0.5380
808463,0.0516,-0.9343,0.5341
808492,0.0366,-0.9269,0.5247
808515,0.0194,-0.9135,0.5143
808551,0.0011,-0.8962,0.5040
808575,-0.0081,-0.8868,0.4993
808597,-0.0258,-0.8679,0.4906
808620,-0.0342,-0.8589,0.4868
808643,-0.0420,-0.8505,0.4835
808664,-0.0555,-0.8361,0.4785
808706,-0.0660,-0.8257,0.4756
808737,-0.0732,-0.8198,0.4749
808754,-0.0757,-0.8184,0.4752
808776,-0.0774,-0.8180,0.4758
808798,-0.0790,-0.8197,0.4780
808818,-0.0791,-0.8215,0.4794
808841,-0.0789,-0.8239,0.4810
808866,-0.0775,-0.8295,0.4844
808918,-0.0747,-0.8390,0.4901
808941,-0.0739,-0.8420,0.4921
808958,-0.0731,-0.8450,0.4940
808978,-0.0720,-0.8500,0.4976
808998,-0.0717,-0.8519,0.4993
809015,-0.0713,-0.8535,0.5007
809039,-0.0712,-0.8546,0.5022
809062,-0.0707,-0.8552,0.5046
809100,-0.0693,-0.8533,0.5065
809123,-0.0682,-0.8513,0.5072
809147,-0.0642,-0.8447,0.5085
809169,-0.0613,-0.8402,0.5092
809191,-0.0575,-0.8347,0.5100
809215,-0.0476,-0.8215,0.5123
809238,-0.0416,-0.8141,0.5140
809260,-0.0283,-0.7979,0.5192
809298,-0.0142,-0.7815,0.5270
809321,-0.0071,-0.7738,0.5319
809347,0.0063,-0.7614,0.5437
809370,0.0126,-0.7568,0.5505
809392,0.0234,-0.7524,0.5656
809409,0.0282,-0.7526,0.5736
809431,0.0323,-0.7542,0.5819
809454,0.0361,-0.7570,0.5906
809471,0.0393,-0.7609,0.5995
809489,0.0422,-0.7653,0.6084
809511,0.0470,-0.7744,0.6267
809566,0.0526,-0.7850,0.6528
809589,0.0543,-0.7870,0.6606
809606,0.0560,-0.7881,0.6678
809627,0.0602,-0.7869,0.6792
809664,0.0653,-0.7815,0.6854
809684,0.0682,-0.7772,0.6863
809705,0.0715,-0.7722,0.6857
809727,0.0790,-0.7606,0.6808
809756,0.0883,-0.7498,0.6731
809778,0.0936,-0.7460,0.6691
809803,0.0995,-0.7440,0.6654
809825,0.1113,-0.7467,0.6592
809848,0.1167,-0.7516,0.6561
809866,0.1211,-0.7587,0.6525
809892,0.1238,-0.7793,0.6412
809915,0.1208,-0.7926,0.6324
809967,0.0896,-0.8430,0.5894
809988,0.0492,-0.8831,0.5468
810005,0.0236,-0.9043,0.5222
810027,-0.0052,-0.9258,0.4962
810050,-0.0366,-0.9473,0.4694
810067,-0.0701,-0.9683,0.4423
810089,-0.1398,-1.0066,0.3901
810106,-0.1742,-1.0232,0.3662
810148,-0.2378,-1.0488,0.3248
810171,-0.2894,-1.0625,0.2932
810194,-0.3094,-1.0643,0.2809
810217,-0.3253,-1.0630,0.2709
810239,-0.3445,-1.0508,0.2571
810256,-0.3481,-1.0404,0.2529
810294,-0.3447,-1.0132,0.2500
810312,-0.3383,-0.9971,0.2507
810340,-0.3180,-0.9623,0.2556
810363,-0.3052,-0.9443,0.2593
810387,-0.2765,-0.9095,0.2678
810409,-0.2614,-0.8932,0.2722
810432,-0.2462,-0.8781,0.2765
810459,-0.2168,-0.8525,0.2847
810483,-0.2029,-0.8425,0.2887
810507,-0.1768,-0.8280,0.2975
810538,-0.1519,-0.8196,0.3088
810561,-0.1395,-0.8171,0.3159
810578,-0.1274,-0.8157,0.3240
810601,-0.1039,-0.8151,0.3431
810623,-0.0928,-0.8158,0.3541
810646,-0.0824,-0.8174,0.3657
810668,-0.0642,-0.8225,0.3909
810688,-0.0565,-0.8259,0.4041
810714,-0.0496,-0.8297,0.4174
810736,-0.0386,-0.8379,0.4441
810759,-0.0343,-0.8422,0.4570
810787,-0.0281,-0.8507,0.4812
810810,-0.0261,-0.8550,0.4923
810834,-0.0240,-0.8630,0.5118
810856,-0.0239,-0.8666,0.5201
810879,-0.0242,-0.8698,0.5275
810902,-0.0261,-0.8744,0.5391
810922,-0.0276,-0.8759,0.5433
810945,-0.0293,-0.8768,0.5465
810967,-0.0330,-0.8770,0.5499
811033,-0.0408,-0.8711,0.5469
811055,-0.0427,-0.8685,0.5444
811078,-0.0446,-0.8658,0.5416
811100,-0.0481,-0.8599,0.5348
811126,-0.0497,-0.8567,0.5310
811148,-0.0524,-0.8507,0.5234
811190,-0.0542,-0.8456,0.5161
811214,-0.0551,-0.8417,0.5096
811237,-0.0553,-0.8403,0.5068
811260,-0.0553,-0.8392,0.5043
811282,-0.0549,-0.8381,0.5001
811299,-0.0546,-0.8379,0.4985
811322,-0.0543,-0.8376,0.4973
811339,-0.0540,-0.8375,0.4963
811381,-0.0530,-0.8362,0.4949
811403,-0.0524,-0.8353,0.4949
811428,-0.0516,-0.8342,0.4951
811450,-0.0491,-0.8307,0.4961
811473,-0.0471,-0.8281,0.4967
811490,-0.0447,-0.8252,0.4974
811524,-0.0378,-0.8173,0.4994
811542,-0.0333,-0.8125,0.5007
811570,-0.0219,-0.8015,0.5049
811593,-0.0149,-0.7957,0.5081
811618,0.0017,-0.7841,0.5170
811639,0.0110,-0.7786,0.5229
811661,0.0206,-0.7734,0.5299
811682,0.0403,-0.7655,0.5463
811703,0.0498,-0.7629,0.5555
811723,0.0586,-0.7615,0.5651
811761,0.0797,-0.7644,0.5942
811781,0.0846,-0.7676,0.6036
811806,0.0884,-0.7714,0.6127
811825,0.0911,-0.7756,0.6211
811848,0.0936,-0.7842,0.6367
811873,0.0939,-0.7877,0.6436
811895,0.0931,-0.7919,0.6553
811918,0.0924,-0.7921,0.6600
811944,0.0916,-0.7886,0.6672
811964,0.0918,-0.7847,0.6697
811987,0.0925,-0.7794,0.6715
812031,0.1000,-0.7571,0.6730
812054,0.1041,-0.7482,0.6726
812074,0.1091,-0.7393,0.6719
812095,0.1208,-0.7224,0.6704
812137,0.1333,-0.7100,0.6697
812168,0.1442,-0.7047,0.6703
812191,0.1479,-0.7057,0.6708
812208,0.1499,-0.7094,0.6711
812230,0.1467,-0.7252,0.6700
812253,0.1404,-0.7372,0.6676
812270,0.1301,-0.7516,0.6633
812291,0.1152,-0.7682,0.6566
812312,0.0704,-0.8069,0.6354
812337,0.0406,-0.8281,0.6211
812354,0.0065,-0.8501,0.6049
812376,-0.0720,-0.8942,0.5682
812419,-0.1575,-0.9357,0.5297
812439,-0.2004,-0.9547,0.5107
812474,-0.3184,-1.0015,0.4587
812498,-0.3511,-1.0123,0.4436
812520,-0.3793,-1.0204,0.4296
812540,-0.4204,-1.0267,0.4044
812557,-0.4329,-1.0248,0.3931
812578,-0.4397,-1.0195,0.3823
812613,-0.4380,-0.9999,0.3628
812634,-0.4301,-0.9861,0.3538
812656,-0.4031,-0.9526,0.3370
812676,-0.3855,-0.9340,0.3296
812699,-0.3661,-0.9144,0.3226
812723,-0.3247,-0.8751,0.3107
812751,-0.3041,-0.8561,0.3059
812769,-0.2843,-0.8379,0.3021
812804,-0.2488,-0.8063,0.2977
812826,-0.2205,-0.7827,0.2982
812851,-0.2094,-0.7743,0.3007
812873,-0.1927,-0.7640,0.3103
812896,-0.1866,-0.7617,0.3177
812920,-0.1816,-0.7611,0.3270
812942,-0.1740,-0.7639,0.3507
812968,-0.1709,-0.7671,0.3646
813012,-0.1639,-0.7828,0.4121
813050,-0.1599,-0.7972,0.4457
813068,-0.1577,-0.8052,0.4622
813089,-0.1526,-0.8215,0.4937
813112,-0.1495,-0.8295,0.5081
813132,-0.1464,-0.8372,0.5212
813154,-0.1396,-0.8508,0.5432
813171,-0.1362,-0.8568,0.5516
813206,-0.1296,-0.8660,0.5632
813229,-0.1267,-0.8690,0.5665
813253,-0.1215,-0.8722,0.5681
813275,-0.1191,-0.8722,0.5668
813298,-0.1172,-0.8713,0.5642
813320,-0.1140,-0.8674,0.5563
813354,-0.1119,-0.8611,0.5458
813378,-0.1112,-0.8574,0.5399
813408,-0.1105,-0.8492,0.5278
813431,-0.1104,-0.8451,0.5219
813455,-0.1110,-0.8368,0.5107
813478,-0.1115,-0.8329,0.5057
813500,-0.1123,-0.8291,0.5015
813517,-0.1132,-0.8257,0.4978
813539,-0.1155,-0.8201,0.4926
813558,-0.1168,-0.8179,0.4912
813583,-0.1183,-0.8162,0.4905
813600,-0.1211,-0.8140,0.4913
813621,-0.1224,-0.8135,0.4927
813663,-0.1249,-0.8135,0.4967
813687,-0.1268,-0.8145,0.5018
813711,-0.1274,-0.8152,0.5044
813731,-0.1279,-0.8160,0.5068
813752,-0.1277,-0.8177,0.5111
813774,-0.1270,-0.8185,0.5129
813799,-0.1239,-0.8195,0.5159
813819,-0.1215,-0.8195,0.5170
813854,-0.1145,-0.8184,0.5188
813877,-0.1101,-0.8171,0.5197
813901,-0.0994,-0.8134,0.5210
813924,-0.0934,-0.8109,0.5219
813946,-0.0869,-0.8082,0.5228
813963,-0.0802,-0.8053,0.5242
813990,-0.0663,-0.7992,0.5283
814008,-0.0594,-0.7960,0.5311
814065,-0.0352,-0.7836,0.5486
814087,-0.0302,-0.7806,0.5544
814104,-0.0258,-0.7781,0.5608
814127,-0.0217,-0.7758,0.5677
814149,-0.0145,-0.7717,0.5829
814166,-0.0112,-0.7701,0.5911
814189,-0.0079,-0.7684,0.5995
814213,-0.0044,-0.7668,0.6082
814243,0.0037,-0.7626,0.6251
814266,0.0143,-0.7557,0.6403
814299,0.0284,-0.7454,0.6512
814321,0.0367,-0.7389,0.6547
814345,0.0459,-0.7317,0.6567
814367,0.0662,-0.7166,0.6570
814390,0.0770,-0.7092,0.6560
814427,0.0995,-0.6979,0.6541
814450,0.1211,-0.6936,0.6553
814467,0.1306,-0.6951,0.6580
814485,0.1389,-0.6990,0.6625
814509,0.1455,-0.7056,0.6688
814534,0.1521,-0.7267,0.6855
814557,0.1511,-0.7412,0.6948
814579,0.1382,-0.7770,0.7114
814603,0.1251,-0.7976,0.7169
814646,0.0560,-0.8656,0.7129
814666,0.0232,-0.8890,0.7032
814683,-0.0143,-0.9121,0.6895
814705,-0.0554,-0.9344,0.6716
814727,-0.1454,-0.9756,0.6262
814744,-0.1923,-0.9935,0.6000
814766,-0.2386,-1.0096,0.5724
814789,-0.2837,-1.0233,0.5439
814806,-0.3264,-1.0345,0.5155
814828,-0.4012,-1.0485,0.4603
814851,-0.4320,-1.0507,0.4343
814878,-0.4780,-1.0448,0.3876
814909,-0.5022,-1.0251,0.3488
814926,-0.5061,-1.0105,0.3325
814948,-0.5049,-0.9930,0.3187
814971,-0.4989,-0.9733,0.3071
814994,-0.4745,-0.9286,0.2906
815020,-0.4573,-0.9048,0.2858
815042,-0.4164,-0.8568,0.2821
815093,-0.3488,-0.7919,0.2909
815116,-0.3269,-0.7738,0.2972
815133,-0.3064,-0.7581,0.3052
815155,-0.2876,-0.7448,0.3143
815177,-0.2562,-0.7255,0.3364
815210,-0.2345,-0.7157,0.3621
815227,-0.2274,-0.7140,0.3756
815273,-0.2197,-0.7202,0.4166
815296,-0.2208,-0.7252,0.4297
815313,-0.2234,-0.7314,0.4423
815336,-0.2269,-0.7385,0.4540
815357,-0.2360,-0.7542,0.4749
815374,-0.2407,-0.7622,0.4836
815396,-0.2454,-0.7701,0.4915
815421,-0.2495,-0.7778,0.4983
815456,-0.2570,-0.7987,0.5133
815478,-0.2571,-0.8047,0.5171
815518,-0.2539,-0.8151,0.5232
815541,-0.2462,-0.8235,0.5280
815566,-0.2411,-0.8271,0.5298
815588,-0.2355,-0.8304,0.5312
815610,-0.2234,-0.8361,0.5328
815648,-0.2120,-0.8403,0.5325
815687,-0.2025,-0.8428,0.5305
815705,-0.1954,-0.8429,0.5275
815725,-0.1929,-0.8419,0.5259
815746,-0.1910,-0.8405,0.5243
815768,-0.1898,-0.8385,0.5227
815788,-0.1891,-0.8333,0.5199
815819,-0.1895,-0.8301,0.5187
815852,-0.1913,-0.8236,0.5166
815873,-0.1941,-0.8173,0.5150
815890,-0.1957,-0.8142,0.5143
815913,-0.1973,-0.8115,0.5138
815935,-0.1990,-0.8092,0.5133
815952,-0.2006,-0.8071,0.5128
815974,-0.2034,-0.8040,0.5122
815995,-0.2046,-0.8029,0.5120
816016,-0.2056,-0.8021,0.5117
816034,-0.2064,-0.8015,0.5115
816056,-0.2075,-0.8007,0.5112
816118,-0.2074,-0.7980,0.5103
816146,-0.2058,-0.7966,0.5098
816164,-0.2043,-0.7949,0.5094
816186,-0.1997,-0.7902,0.5089
816208,-0.1963,-0.7871,0.5088
816225,-0.1923,-0.7836,0.5089
816243,-0.1873,-0.7795,0.5093
816265,-0.1813,-0.7751,0.5101
816302,-0.1576,-0.7601,0.5155
816324,-0.1479,-0.7549,0.5186
816351,-0.1266,-0.7451,0.5275
816372,-0.1152,-0.7407,0.5334
816395,-0.1039,-0.7367,0.5408
816412,-0.0925,-0.7332,0.5493
816443,-0.0712,-0.7274,0.5703
816461,-0.0615,-0.7253,0.5825
816515,-0.0374,-0.7231,0.6251
816532,-0.0306,-0.7238,0.6405
816551,-0.0188,-0.7271,0.6716
816573,-0.0131,-0.7294,0.6868
816596,-0.0071,-0.7321,0.7012
816613,-0.0007,-0.7347,0.7147
816633,0.0062,-0.7373,0.7271
816655,0.0226,-0.7411,0.7476
816699,0.0541,-0.7404,0.7661
816721,0.0663,-0.7380,0.7689
816745,0.0791,-0.7347,0.7700
816763,0.0922,-0.7303,0.7697
816785,0.1188,-0.7194,0.7650
816808,0.1318,-0.7130,0.7612
816825,0.1444,-0.7067,0.7566
816847,0.1564,-0.7004,0.7515
816864,0.1675,-0.6945,0.7462
816901,0.1937,-0.6819,0.7311
816924,0.1989,-0.6803,0.7264
816948,0.2004,-0.6826,0.7172
816969,0.1958,-0.6869,0.7119
816992,0.1869,-0.6937,0.7061
817016,0.1545,-0.7151,0.6906
817046,0.1309,-0.7297,0.6689
817065,0.0691,-0.7672,0.6558
817118,-0.0526,-0.8401,0.6074
817141,-0.0979,-0.8673,0.5890
817158,-0.1440,-0.8950,0.5701
817180,-0.2343,-0.9492,0.5314
817202,-0.2761,-0.9744,0.5121
817219,-0.3146,-0.9972,0.4933
817242,-0.3488,-1.0171,0.4750
817266,-0.4019,-1.0455,0.4403
817297,-0.4324,-1.0557,0.4082
817319,-0.4392,-1.0533,0.3931
817352,-0.4371,-1.0341,0.3650
817374,-0.4291,-1.0179,0.3521
817397,-0.4020,-0.9758,0.3293
817420,-0.3842,-0.9513,0.3197
817442,-0.3645,-0.9257,0.3114
817468,-0.3223,-0.8739,0.2986
817486,-0.3008,-0.8494,0.2942
817508,-0.2799,-0.8263,0.2911
817552,-0.2229,-0.7717,0.2892
817575,-0.2064,-0.7596,0.2908
817599,-0.1780,-0.7454,0.2963
817621,-0.1658,-0.7432,0.2999
817648,-0.1451,-0.7476,0.3082
817671,-0.1365,-0.7537,0.3126
817694,-0.1222,-0.7728,0.3215
817716,-0.1162,-0.7852,0.3262
817753,-0.1057,-0.8143,0.3364
817776,-0.1008,-0.8304,0.3420
817800,-0.0905,-0.8647,0.3545
817823,-0.0851,-0.8821,0.3608
817845,-0.0737,-0.9155,0.3733
817862,-0.0680,-0.9308,0.3789
817884,-0.0623,-0.9447,0.3839
817907,-0.0565,-0.9570,0.3883
817944,-0.0404,-0.9818,0.3984
817972,-0.0354,-0.9857,0.4010
817990,-0.0308,-0.9875,0.4036
818012,-0.0222,-0.9854,0.4089
818035,-0.0184,-0.9817,0.4120
818052,-0.0151,-0.9767,0.4153
818074,-0.0122,-0.9705,0.4189
818092,-0.0079,-0.9552,0.4270
818153,-0.0052,-0.9286,0.4402
818178,-0.0062,-0.9104,0.4489
818201,-0.0076,-0.9016,0.4528
818223,-0.0093,-0.8931,0.4563
818240,-0.0116,-0.8850,0.4595
818271,-0.0175,-0.8702,0.4644
818296,-0.0245,-0.8578,0.4674
818347,-0.0360,-0.8439,0.4692
818372,-0.0399,-0.8406,0.4694
818392,-0.0474,-0.8359,0.4697
818415,-0.0509,-0.8347,0.4698
818439,-0.0542,-0.8342,0.4702
818461,-0.0601,-0.8348,0.4713
818483,-0.0626,-0.8361,0.4722
818535,-0.0688,-0.8424,0.4753
818552,-0.0703,-0.8452,0.4767
818579,-0.0723,-0.8513,0.4795
818602,-0.0728,-0.8544,0.4811
818619,-0.0729,-0.8573,0.4827
818641,-0.0723,-0.8624,0.4858
818664,-0.0714,-0.8644,0.4873
818684,-0.0704,-0.8660,0.4888
818702,-0.0692,-0.8671,0.4901
818723,-0.0664,-0.8673,0.4923
818745,-0.0647,-0.8666,0.4933
818774,-0.0609,-0.8634,0.4949
818797,-0.0587,-0.8608,0.4955
818821,-0.0535,-0.8539,0.4966
818843,-0.0503,-0.8495,0.4971
818881,-0.0428,-0.8389,0.4980
818898,-0.0385,-0.8328,0.4987
818915,-0.0334,-0.8264,0.4996
818936,-0.0281,-0.8199,0.5009
818978,-0.0099,-0.8014,0.5079
819001,-0.0034,-0.7960,0.5117
819025,0.0092,-0.7877,0.5215
819048,0.0149,-0.7849,0.5276
819070,0.0248,-0.7828,0.5415
819087,0.0288,-0.7837,0.5492
819113,0.0320,-0.7859,0.5573
819135,0.0345,-0.7893,0.5652
819188,0.0393,-0.8119,0.5956
819212,0.0398,-0.8182,0.6022
819230,0.0402,-0.8243,0.6082
819252,0.0409,-0.8341,0.6180
819274,0.0414,-0.8373,0.6219
819291,0.0421,-0.8392,0.6250
819316,0.0431,-0.8400,0.6273
819338,0.0464,-0.8379,0.6298
819368,0.0519,-0.8322,0.6298
819390,0.0557,-0.8281,0.6289
819414,0.0603,-0.8235,0.6277
819436,0.0720,-0.8129,0.6243
819458,0.0793,-0.8068,0.6221
819482,0.0874,-0.8000,0.6196
819513,0.1061,-0.7844,0.6141
819531,0.1166,-0.7753,0.6112
819563,0.1390,-0.7540,0.6055
819586,0.1613,-0.7300,0.6001
819603,0.1708,-0.7179,0.5975
819624,0.1783,-0.7064,0.5951
819644,0.1832,-0.6964,0.5929
819666,0.1826,-0.6836,0.5891
819688,0.1761,-0.6824,0.5876
819711,0.1654,-0.6855,0.5865
819728,0.1503,-0.6935,0.5856
819770,0.0801,-0.7473,0.5806
819793,0.0491,-0.7744,0.5765
819818,-0.0232,-0.8384,0.5616
819841,-0.0635,-0.8737,0.5500
819865,-0.1498,-0.9456,0.5179
819887,-0.1942,-0.9802,0.4979
819909,-0.2386,-1.0127,0.4757
819955,-0.3621,-1.0881,0.4027
819978,-0.3975,-1.1040,0.3785
819995,-0.4288,-1.1145,0.3556
820017,-0.4779,-1.1193,0.3148
820040,-0.4952,-1.1138,0.2979
820057,-0.5077,-1.1033,0.2832
820079,-0.5155,-1.0881,0.2711
820116,-0.5129,-1.0195,0.2490
820136,-0.5048,-0.9910,0.2461
820159,-0.4938,-0.9608,0.2451
820181,-0.4655,-0.8983,0.2485
820228,-0.4326,-0.8099,0.2651
820253,-0.3993,-0.7842,0.2732
820276,-0.3833,-0.7611,0.2825
820298,-0.3539,-0.7239,0.3040
820315,-0.3406,-0.7101,0.3158
820340,-0.3284,-0.6995,0.3282
820362,-0.3070,-0.6879,0.3535
820399,-0.2893,-0.6876,0.3782
820423,-0.2817,-0.6910,0.3899
820447,-0.2683,-0.7039,0.4121
820470,-0.2622,-0.7124,0.4225
820492,-0.2561,-0.7220,0.4325
820509,-0.2500,-0.7324,0.4420
820531,-0.2369,-0.7544,0.4601
820551,-0.2297,-0.7655,0.4686
820591,-0.2136,-0.7871,0.4841
820615,-0.1951,-0.8073,0.4979
820634,-0.1849,-0.8168,0.5043
820657,-0.1742,-0.8256,0.5103
820677,-0.1516,-0.8413,0.5215
820694,-0.1400,-0.8481,0.5267
820728,-0.1168,-0.8595,0.5364
820745,-0.1055,-0.8640,0.5408
820787,-0.0841,-0.8707,0.5481
820805,-0.0742,-0.8729,0.5510
820828,-0.0569,-0.8751,0.5553
820851,-0.0497,-0.8751,0.5565
820868,-0.0433,-0.8745,0.5571
820890,-0.0381,-0.8732,0.5571
820910,-0.0310,-0.8693,0.5555
820934,-0.0289,-0.8668,0.5541
820958,-0.0273,-0.8616,0.5503
820980,-0.0277,-0.8589,0.5481
821010,-0.0299,-0.8538,0.5433
821034,-0.0316,-0.8513,0.5406
821052,-0.0337,-0.8489,0.5380
821074,-0.0385,-0.8444,0.5319
821096,-0.0410,-0.8423,0.5286
821113,-0.0437,-0.8403,0.5249
821136,-0.0464,-0.8384,0.5211
821154,-0.0491,-0.8367,0.5172
821215,-0.0565,-0.8287,0.5021
821240,-0.0566,-0.8230,0.4961
821262,-0.0553,-0.8195,0.4937
821285,-0.0530,-0.8154,0.4918
821302,-0.0497,-0.8110,0.4906
821336,-0.0403,-0.8011,0.4905
821354,-0.0344,-0.7960,0.4916
821384,-0.0209,-0.7859,0.4967
821406,-0.0068,-0.7769,0.5057
821429,-0.0001,-0.7731,0.5116
821452,0.0062,-0.7698,0.5183
821474,0.0170,-0.7657,0.5339
821491,0.0212,-0.7650,0.5426
821514,0.0247,-0.7654,0.5518
821536,0.0273,-0.7666,0.5610
821553,0.0293,-0.7686,0.5706
821570,0.0306,-0.7709,0.5801
821592,0.0322,-0.7760,0.5989
821637,0.0344,-0.7803,0.6255
821661,0.0358,-0.7799,0.6334
821680,0.0380,-0.7783,0.6410
821703,0.0409,-0.7755,0.6478
821724,0.0498,-0.7657,0.6597
821747,0.0558,-0.7588,0.6643
821764,0.0627,-0.7505,0.6682
821784,0.0707,-0.7412,0.6713
821827,0.0990,-0.7086,0.6772
821850,0.1096,-0.6974,0.6788
821873,0.1318,-0.6770,0.6833
821896,0.1429,-0.6689,0.6868
821918,0.1537,-0.6632,0.6912
821940,0.1724,-0.6602,0.7035
821964,0.1796,-0.6636,0.7112
821981,0.1847,-0.6704,0.7197
822018,0.1860,-0.7103,0.7461
822041,0.1809,-0.7292,0.7528
822058,0.1726,-0.7502,0.7574
822081,0.1610,-0.7732,0.7589
822103,0.1276,-0.8231,0.7499
822120,0.1056,-0.8499,0.7385
822143,0.0802,-0.8772,0.7223
822165,0.0516,-0.9050,0.7013
822222,-0.0873,-1.0110,0.5782
822247,-0.1251,-1.0338,0.5413
822270,-0.1993,-1.0719,0.4659
822293,-0.2341,-1.0861,0.4293
822310,-0.2665,-1.0964,0.3944
822332,-0.2958,-1.1024,0.3618
822353,-0.3440,-1.1005,0.3051
822370,-0.3625,-1.0925,0.2817
822387,-0.3773,-1.0802,0.2620
822410,-0.3887,-1.0637,0.2458
822454,-0.4041,-0.9952,0.2190
822477,-0.4042,-0.9684,0.2169
822501,-0.3982,-0.9126,0.2224
822524,-0.3928,-0.8850,0.2294
822546,-0.3859,-0.8585,0.2390
822563,-0.3778,-0.8334,0.2507
822592,-0.3586,-0.7886,0.2795
822611,-0.3478,-0.7692,0.2959
822654,-0.3113,-0.7245,0.3490
822677,-0.2977,-0.7141,0.3674
822702,-0.2687,-0.7001,0.4044
822725,-0.2532,-0.6965,0.4229
822747,-0.2371,-0.6953,0.4410
822764,-0.2205,-0.6964,0.4589
822786,-0.1865,-0.7054,0.4930
822803,-0.1694,-0.7131,0.5092
822848,-0.1191,-0.7461,0.5520
822870,-0.1033,-0.7593,0.5637
822894,-0.0883,-0.7729,0.5740
822912,-0.0742,-0.7867,0.5826
822934,-0.0492,-0.8136,0.5944
822956,-0.0386,-0.8260,0.5975
822973,-0.0293,-0.8375,0.5990
822995,-0.0212,-0.8478,0.5986
823012,-0.0145,-0.8567,0.5968
823070,-0.0007,-0.8783,0.5774
823095,-0.0002,-0.8804,0.5706
823117,-0.0021,-0.8811,0.5562
823140,-0.0043,-0.8799,0.5490
823157,-0.0071,-0.8778,0.5420
823195,-0.0184,-0.8679,0.5236
823213,-0.0229,-0.8639,0.5184
823260,-0.0323,-0.8555,0.5099
823285,-0.0419,-0.8469,0.5034
823308,-0.0464,-0.8428,0.5011
823330,-0.0551,-0.8351,0.4978
823352,-0.0590,-0.8317,0.4969
823375,-0.0626,-0.8286,0.4963
823397,-0.0690,-0.8237,0.4962
823437,-0.0741,-0.8206,0.4972
823459,-0.0762,-0.8196,0.4980
823476,-0.0780,-0.8188,0.4990
823499,-0.0804,-0.8184,0.5016
823522,-0.0811,-0.8184,0.5031
823539,-0.0812,-0.8184,0.5046
823561,-0.0798,-0.8179,0.5082
823583,-0.0785,-0.8173,0.5101
823600,-0.0765,-0.8163,0.5122
823617,-0.0742,-0.8148,0.5144
823638,-0.0714,-0.8129,0.5168
823658,-0.0682,-0.8104,0.5195
823688,-0.0608,-0.8042,0.5258
823709,-0.0568,-0.8005,0.5294
823731,-0.0482,-0.7924,0.5380
823754,-0.0439,-0.7881,0.5430
823775,-0.0359,-0.7791,0.5544
823817,-0.0287,-0.7701,0.5681
823835,-0.0255,-0.7657,0.5757
823879,-0.0184,-0.7539,0.6002
823902,-0.0168,-0.7505,0.6089
823926,-0.0143,-0.7445,0.6265
823946,-0.0131,-0.7422,0.6354
823967,-0.0116,-0.7401,0.6442
823989,-0.0098,-0.7384,0.6531
824011,-0.0044,-0.7361,0.6703
824028,-0.0006,-0.7352,0.6783
824073,0.0154,-0.7329,0.6984
824095,0.0220,-0.7319,0.7031
824119,0.0291,-0.7311,0.7069
824137,0.0366,-0.7302,0.7096
824159,0.0524,-0.7294,0.7122
824182,0.0603,-0.7296,0.7123
824199,0.0681,-0.7306,0.7118
824221,0.0757,-0.7325,0.7109
824239,0.0889,-0.7397,0.7079
824293,0.0984,-0.7605,0.6975
824315,0.0972,-0.7704,0.6913
824332,0.0931,-0.7820,0.6831
824354,0.0861,-0.7955,0.6729
824376,0.0627,-0.8287,0.6462
824393,0.0469,-0.8481,0.6302
824420,0.0286,-0.8691,0.6130
824438,-0.0138,-0.9139,0.5757
824469,-0.0374,-0.9368,0.5559
824491,-0.0876,-0.9806,0.5151
824508,-0.1138,-1.0005,0.4945
824531,-0.1400,-1.0182,0.4740
824553,-0.1659,-1.0333,0.4537
824580,-0.2142,-1.0542,0.4153
824597,-0.2358,-1.0593,0.3973
824618,-0.2551,-1.0609,0.3805
824637,-0.2860,-1.0531,0.3506
824654,-0.2972,-1.0442,0.3376
824674,-0.3057,-1.0323,0.3260
824719,-0.3143,-0.9850,0.2998
824750,-0.3123,-0.9673,0.2938
824774,-0.3020,-0.9319,0.2860
824797,-0.2942,-0.9153,0.2842
824821,-0.2740,-0.8854,0.2847
824844,-0.2622,-0.8724,0.2869
824862,-0.2491,-0.8608,0.2906
824921,-0.1886,-0.8269,0.3187
824944,-0.1722,-0.8213,0.3285
824961,-0.1558,-0.8168,0.3391
824983,-0.1396,-0.8134,0.3502
825004,-0.1090,-0.8098,0.3734
825021,-0.0950,-0.8097,0.3851
825045,-0.0819,-0.8107,0.3967
825063,-0.0699,-0.8127,0.4081
825107,-0.0414,-0.8246,0.4393
825130,-0.0343,-0.8301,0.4484
825154,-0.0238,-0.8424,0.4640
825177,-0.0204,-0.8488,0.4706
825199,-0.0179,-0.8550,0.4763
825216,-0.0166,-0.8608,0.4812
825238,-0.0165,-0.8708,0.4889
825263,-0.0176,-0.8746,0.4917
825317,-0.0277,-0.8817,0.4973
825344,-0.0310,-0.8817,0.4978
825362,-0.0345,-0.8809,0.4979
825384,-0.0417,-0.8777,0.4977
825407,-0.0452,-0.8755,0.4976
825452,-0.0542,-0.8667,0.4973
825469,-0.0568,-0.8634,0.4976
825500,-0.0609,-0.8566,0.4987
825521,-0.0625,-0.8533,0.4994
825546,-0.0637,-0.8500,0.5005
825568,-0.0652,-0.8439,0.5032
825591,-0.0654,-0.8411,0.5046
825608,-0.0656,-0.8386,0.5061
825629,-0.0653,-0.8363,0.5077
825651,-0.0645,-0.8328,0.5105
825668,-0.0637,-0.8315,0.5117
825691,-0.0630,-0.8307,0.5128
825712,-0.0621,-0.8302,0.5138
825754,-0.0598,-0.8307,0.5156
825776,-0.0591,-0.8313,0.5160
825799,-0.0582,-0.8331,0.5162
825822,-0.0580,-0.8341,0.5162
825844,-0.0580,-0.8351,0.5160
825861,-0.0580,-0.8359,0.5157
825885,-0.0580,-0.8369,0.5150
825908,-0.0580,-0.8370,0.5146
825948,-0.0573,-0.8345,0.5132
825972,-0.0568,-0.8325,0.5127
825989,-0.0560,-0.8300,0.5125
826010,-0.0549,-0.8268,0.5123
826031,-0.0521,-0.8188,0.5132
826056,-0.0502,-0.8142,0.5143
826078,-0.0454,-0.8038,0.5189
826095,-0.0426,-0.7982,0.5223
826139,-0.0360,-0.7874,0.5320
826162,-0.0288,-0.7775,0.5452
826186,-0.0249,-0.7732,0.5531
826209,-0.0210,-0.7695,0.5618
826231,-0.0129,-0.7638,0.5814
826254,-0.0088,-0.7618,0.5920
826277,-0.0001,-0.7594,0.6145
826295,0.0045,-0.7588,0.6259
826357,0.0193,-0.7572,0.6566
826382,0.0298,-0.7550,0.6721
826405,0.0350,-0.7533,0.6777
826427,0.0454,-0.7480,0.6843
826444,0.0503,-0.7445,0.6853
826466,0.0551,-0.7405,0.6849
826489,0.0594,-0.7361,0.6833
826529,0.0709,-0.7244,0.6732
826551,0.0742,-0.7222,0.6689
826591,0.0845,-0.7262,0.6571
826612,0.0880,-0.7319,0.6538
826634,0.0916,-0.7399,0.6509
826654,0.0948,-0.7501,0.6478
826671,0.0975,-0.7622,0.6443
826692,0.0989,-0.7917,0.6334
826709,0.0963,-0.8090,0.6249
826746,0.0822,-0.8480,0.5992
826768,0.0701,-0.8699,0.5820
826792,0.0361,-0.9181,0.5400
826814,0.0143,-0.9443,0.5160
826837,-0.0105,-0.9716,0.4906
826854,-0.0382,-0.9995,0.4641
826884,-0.1007,-1.0549,0.4105
826909,-0.1692,-1.1056,0.3597
826940,-0.2379,-1.1466,0.3149
826962,-0.2706,-1.1622,0.2957
826979,-0.3013,-1.1737,0.2786
827002,-0.3290,-1.1809,0.2640
827024,-0.3740,-1.1804,0.2423
827043,-0.3905,-1.1724,0.2351
827065,-0.4026,-1.1591,0.2301
827087,-0.4105,-1.1406,0.2272
827104,-0.4143,-1.1177,0.2260
827121,-0.4143,-1.0905,0.2263
827143,-0.4043,-1.0265,0.2316
827188,-0.3701,-0.9197,0.2495
827212,-0.3553,-0.8849,0.2578
827236,-0.3397,-0.8517,0.2672
827258,-0.3070,-0.7924,0.2886
827281,-0.2906,-0.7670,0.3004
827298,-0.2749,-0.7446,0.3127
827316,-0.2598,-0.7256,0.3256
827338,-0.2327,-0.6978,0.3524
827399,-0.2007,-0.6812,0.3947
827424,-0.1841,-0.6854,0.4241
827447,-0.1768,-0.6914,0.4388
827469,-0.1699,-0.6997,0.4534
827486,-0.1635,-0.7098,0.4677
827517,-0.1517,-0.7346,0.4949
827535,-0.1461,-0.7485,0.5076
827572,-0.1285,-0.7928,0.5414
827594,-0.1223,-0.8075,0.5509
827618,-0.1160,-0.8217,0.5594
827638,-0.1027,-0.8473,0.5729
827659,-0.0961,-0.8584,0.5776
827682,-0.0895,-0.8680,0.5809
827725,-0.0717,-0.8882,0.5818
827745,-0.0665,-0.8916,0.5793
827776,-0.0582,-0.8940,0.5708
827799,-0.0552,-0.8931,0.5652
827822,-0.0510,-0.8878,0.5520
827839,-0.0500,-0.8837,0.5450
827862,-0.0498,-0.8788,0.5380
827884,-0.0503,-0.8733,0.5311
827901,-0.0532,-0.8611,0.5181
827923,-0.0557,-0.8549,0.5122
827940,-0.0587,-0.8485,0.5070
827977,-0.0659,-0.8369,0.4983
828000,-0.0699,-0.8318,0.4950
828024,-0.0784,-0.8232,0.4906
828047,-0.0825,-0.8199,0.4895
828069,-0.0900,-0.8154,0.4894
828088,-0.0931,-0.8141,0.4902
828126,-0.0981,-0.8131,0.4933
828144,-0.0999,-0.8131,0.4954
828174,-0.1013,-0.8134,0.5000
828197,-0.1013,-0.8132,0.5024
828220,-0.0997,-0.8115,0.5070
828243,-0.0983,-0.8099,0.5090
828265,-0.0964,-0.8076,0.5110
828282,-0.0919,-0.8014,0.5148
828304,-0.0892,-0.7977,0.5166
828327,-0.0863,-0.7936,0.5184
828344,-0.0833,-0.7894,0.5205
828362,-0.0800,-0.7854,0.5228
828384,-0.0730,-0.7778,0.5286
828446,-0.0627,-0.7688,0.5404
828474,-0.0565,-0.7643,0.5502
828492,-0.0536,-0.7625,0.5555
828514,-0.0481,-0.7589,0.5664
828536,-0.0452,-0.7572,0.5719
828555,-0.0421,-0.7552,0.5774
828578,-0.0387,-0.7531,0.5829
828603,-0.0299,-0.7474,0.5944
828636,-0.0176,-0.7394,0.6063
828657,-0.0100,-0.7344,0.6125
828679,-0.0013,-0.7288,0.6190
828700,0.0193,-0.7162,0.6332
828719,0.0311,-0.7095,0.6412
828742,0.0441,-0.7029,0.6499
828775,0.0721,-0.6919,0.6694
828798,0.1017,-0.6869,0.6918
828829,0.1302,-0.6915,0.7164
828851,0.1433,-0.6980,0.7291
828868,0.1549,-0.7075,0.7416
828891,0.1648,-0.7196,0.7534
828913,0.1779,-0.7510,0.7729
828930,0.1803,-0.7694,0.7793
828953,0.1794,-0.7894,0.7826
828970,0.1749,-0.8107,0.7822
829013,0.1376,-0.8792,0.7559
829033,0.1172,-0.9025,0.7385
829058,0.0930,-0.9255,0.7174
829078,0.0352,-0.9695,0.6647
829100,0.0021,-0.9897,0.6342
829124,-0.0330,-1.0084,0.6016
829146,-0.1063,-1.0404,0.5333
829170,-0.1433,-1.0533,0.4989
829210,-0.2478,-1.0773,0.4022
829232,-0.2783,-1.0793,0.3738
829249,-0.3059,-1.0782,0.3477
829272,-0.3301,-1.0737,0.3243
829294,-0.3678,-1.0553,0.2861
829311,-0.3811,-1.0417,0.2714
829334,-0.3906,-1.0259,0.2595
829356,-0.3965,-1.0082,0.2506
829429,-0.3789,-0.9086,0.2463
829446,-0.3679,-0.8888,0.2528
829469,-0.3551,-0.8695,0.2614
829491,-0.3408,-0.8507,0.2720
829508,-0.3252,-0.8325,0.2845
829530,-0.2910,-0.7982,0.3149
829553,-0.2729,-0.7822,0.3323
829570,-0.2545,-0.7673,0.3508
829587,-0.2360,-0.7540,0.3701
829609,-0.1998,-0.7329,0.4100
829646,-0.1661,-0.7212,0.4495
829668,-0.1506,-0.7191,0.4685
829690,-0.1229,-0.7219,0.5040
829708,-0.1108,-0.7262,0.5203
829728,-0.1000,-0.7321,0.5352
829751,-0.0906,-0.7390,0.5486
829768,-0.0825,-0.7468,0.5605
829785,-0.0759,-0.7551,0.5710
829807,-0.0663,-0.7728,0.5875
829844,-0.0612,-0.7905,0.5985
829867,-0.0598,-0.7992,0.6021
829891,-0.0596,-0.8152,0.6056
829914,-0.0603,-0.8223,0.6058
829936,-0.0616,-0.8286,0.6051
829988,-0.0670,-0.8455,0.5961
830015,-0.0710,-0.8474,0.5928
830058,-0.0760,-0.8477,0.5820
830081,-0.0774,-0.8462,0.5781
830098,-0.0785,-0.8441,0.5742
830120,-0.0795,-0.8416,0.5703
830141,-0.0807,-0.8352,0.5626
830163,-0.0811,-0.8317,0.5590
830186,-0.0812,-0.8280,0.5554
830203,-0.0812,-0.8242,0.5521
830250,-0.0806,-0.8135,0.5437
830273,-0.0796,-0.8073,0.5394
830290,-0.0790,-0.8046,0.5377
830314,-0.0781,-0.8020,0.5363
830337,-0.0760,-0.7974,0.5339
830354,-0.0746,-0.7953,0.5331
830376,-0.0729,-0.7932,0.5325
830399,-0.0708,-0.7911,0.5321
830456,-0.0586,-0.7821,0.5343
830481,-0.0544,-0.7797,0.5360
830503,-0.0454,-0.7747,0.5411
830525,-0.0405,-0.7723,0.5448
830542,-0.0354,-0.7701,0.5492
830565,-0.0303,-0.7683,0.5544
830587,-0.0200,-0.7656,0.5668
830632,-0.0099,-0.7645,0.5813
830649,-0.0050,-0.7643,0.5889
830694,0.0087,-0.7639,0.6111
830717,0.0129,-0.7634,0.6179
830739,0.0211,-0.7611,0.6300
830760,0.0249,-0.7593,0.6351
830782,0.0287,-0.7570,0.6399
830803,0.0358,-0.7505,0.6478
830826,0.0391,-0.7463,0.6511
830850,0.0422,-0.7417,0.6542
830880,0.0481,-0.7312,0.6594
830918,0.0571,-0.7134,0.6671
830935,0.0607,-0.7072,0.6700
830958,0.0645,-0.7010,0.6732
830978,0.0688,-0.6949,0.6768
830995,0.0739,-0.6890,0.6808
831016,0.0795,-0.6831,0.6854
831038,0.0925,-0.6724,0.6965
831077,0.1073,-0.6641,0.7106
831100,0.1224,-0.6598,0.7279
831124,0.1296,-0.6599,0.7375
831146,0.1362,-0.6619,0.7477
831166,0.1467,-0.6720,0.7681
831190,0.1499,-0.6805,0.7773
831221,0.1504,-0.7046,0.7906
831244,0.1470,-0.7201,0.7933
831278,0.1304,-0.7576,0.7875
831301,0.0990,-0.8033,0.7634
831318,0.0774,-0.8292,0.7441
831341,0.0518,-0.8567,0.7202
831363,0.0223,-0.8854,0.6918
831380,-0.0103,-0.9148,0.6594
831402,-0.0824,-0.9728,0.5863
831425,-0.1202,-1.0000,0.5474
831442,-0.1577,-1.0253,0.5082
831460,-0.1938,-1.0477,0.4696
831482,-0.2578,-1.0826,0.3981
831544,-0.3220,-1.1042,0.3119
831572,-0.3406,-1.0964,0.2705
831590,-0.3430,-1.0861,0.2544
831614,-0.3367,-1.0543,0.2305
831634,-0.3289,-1.0339,0.2224
831660,-0.3188,-1.0115,0.2167
831680,-0.2942,-0.9625,0.2117
831724,-0.2675,-0.9125,0.2142
831747,-0.2419,-0.8660,0.2231
831772,-0.2303,-0.8451,0.2299
831794,-0.2197,-0.8263,0.2379
831816,-0.2015,-0.7958,0.2582
831833,-0.1938,-0.7842,0.2704
831872,-0.1807,-0.7676,0.2988
831890,-0.1747,-0.7623,0.3151
831920,-0.1633,-0.7570,0.3511
831943,-0.1577,-0.7566,0.3705
831967,-0.1459,-0.7596,0.4113
831990,-0.1395,-0.7629,0.4320
832012,-0.1263,-0.7726,0.4734
832029,-0.1194,-0.7788,0.4937
832052,-0.1122,-0.7859,0.5132
832074,-0.1049,-0.7936,0.5317
832113,-0.0826,-0.8190,0.5795
832136,-0.0756,-0.8274,0.5918
832175,-0.0624,-0.8429,0.6099
832197,-0.0511,-0.8551,0.6187
832222,-0.0463,-0.8597,0.6198
832244,-0.0387,-0.8654,0.6156
832297,-0.0320,-0.8657,0.5979
832333,-0.0304,-0.8618,0.5817
832356,-0.0303,-0.8590,0.5730
832373,-0.0308,-0.8557,0.5643
832395,-0.0326,-0.8485,0.5477
832418,-0.0339,-0.8448,0.5402
832435,-0.0354,-0.8412,0.5331
832472,-0.0388,-0.8346,0.5209
832497,-0.0425,-0.8291,0.5114
832515,-0.0442,-0.8269,0.5076
832538,-0.0458,-0.8251,0.5044
832599,-0.0507,-0.8218,0.4976
832625,-0.0525,-0.8223,0.4969
832643,-0.0532,-0.8230,0.4972
832665,-0.0541,-0.8239,0.4978
832691,-0.0558,-0.8259,0.5000
832711,-0.0566,-0.8271,0.5015
832734,-0.0576,-0.8285,0.5032
832772,-0.0597,-0.8309,0.5067
832796,-0.0620,-0.8334,0.5103
832813,-0.0632,-0.8345,0.5118
832836,-0.0643,-0.8357,0.5132
832858,-0.0667,-0.8381,0.5153
832875,-0.0679,-0.8394,0.5159
832898,-0.0688,-0.8405,0.5162
832922,-0.0707,-0.8423,0.5164
832959,-0.0721,-0.8431,0.5157
832980,-0.0725,-0.8431,0.5153
833003,-0.0728,-0.8427,0.5146
833025,-0.0725,-0.8406,0.5132
833048,-0.0719,-0.8389,0.5123
833065,-0.0709,-0.8365,0.5114
833099,-0.0674,-0.8306,0.5099
833124,-0.0614,-0.8228,0.5094
833155,-0.0527,-0.8136,0.5104
833177,-0.0474,-0.8088,0.5117
833200,-0.0416,-0.8041,0.5135
833221,-0.0289,-0.7948,0.5193
833243,-0.0223,-0.7905,0.5232
833260,-0.0157,-0.7867,0.5278
833283,-0.0094,-0.7834,0.5333
833305,0.0027,-0.7789,0.5461
833322,0.0081,-0.7778,0.5533
833339,0.0131,-0.7776,0.5610
833362,0.0177,-0.7780,0.5691
833409,0.0289,-0.7832,0.5936
833440,0.0348,-0.7882,0.6090
833457,0.0374,-0.7904,0.6161
833480,0.0397,-0.7921,0.6227
833502,0.0441,-0.7932,0.6340
833519,0.0461,-0.7924,0.6390
833537,0.0485,-0.7904,0.6436
833560,0.0509,-0.7871,0.6477
833612,0.0603,-0.7712,0.6587
833633,0.0640,-0.7642,0.6619
833656,0.0718,-0.7487,0.6680
833676,0.0758,-0.7404,0.6711
833697,0.0798,-0.7319,0.6747
833714,0.0839,-0.7236,0.6785
833736,0.0920,-0.7074,0.6874
833753,0.0961,-0.7000,0.6925
833790,0.1040,-0.6877,0.7034
833813,0.1078,-0.6833,0.7090
833837,0.1149,-0.6790,0.7196
833860,0.1178,-0.6793,0.7241
833882,0.1202,-0.6813,0.7277
833899,0.1219,-0.6849,0.7302
833921,0.1221,-0.6970,0.7314
833944,0.1200,-0.7053,0.7296
833983,0.1024,-0.7385,0.7134
834005,0.0919,-0.7523,0.7040
834042,0.0632,-0.7837,0.6793
834065,0.0450,-0.8014,0.6642
834087,0.0013,-0.8401,0.6288
834104,-0.0239,-0.8608,0.6089
834127,-0.0511,-0.8822,0.5878
834148,-0.0802,-0.9037,0.5657
834180,-0.1421,-0.9448,0.5194
834203,-0.2065,-0.9801,0.4723
834220,-0.2385,-0.9941,0.4491
834242,-0.2697,-1.0051,0.4266
834264,-0.2994,-1.0128,0.4054
834288,-0.3529,-1.0175,0.3674
834311,-0.3759,-1.0145,0.3513
834348,-0.4254,-0.9873,0.3177
834367,-0.4351,-0.9731,0.3116
834390,-0.4412,-0.9568,0.3080
834412,-0.4441,-0.9388,0.3068
834441,-0.4406,-0.8993,0.3104
834464,-0.4261,-0.8578,0.3204
834490,-0.4156,-0.8372,0.3270
834513,-0.3893,-0.7981,0.3420
834535,-0.3741,-0.7803,0.3499
834552,-0.3582,-0.7638,0.3579
834570,-0.3414,-0.7489,0.3658
834593,-0.3246,-0.7360,0.3737
834664,-0.2422,-0.7003,0.4164
834688,-0.2272,-0.6990,0.4264
834709,-0.2131,-0.6993,0.4369
834729,-0.1880,-0.7047,0.4594
834751,-0.1770,-0.7095,0.4712
834770,-0.1672,-0.7155,0.4833
834793,-0.1586,-0.7224,0.4956
834815,-0.1444,-0.7394,0.5209
834846,-0.1338,-0.7592,0.5466
834869,-0.1295,-0.7697,0.5593
834893,-0.1259,-0.7804,0.5718
834915,-0.1200,-0.8016,0.5947
834938,-0.1174,-0.8119,0.6047
834955,-0.1151,-0.8215,0.6135
834972,-0.1129,-0.8306,0.6211
834995,-0.1083,-0.8458,0.6316
835032,-0.1034,-0.8567,0.6357
835070,-0.0983,-0.8629,0.6338
835088,-0.0956,-0.8644,0.6307
835111,-0.0902,-0.8643,0.6212
835132,-0.0876,-0.8629,0.6151
835149,-0.0851,-0.8608,0.6082
835174,-0.0828,-0.8580,0.6007
835196,-0.0785,-0.8513,0.5848
835239,-0.0752,-0.8433,0.5685
835261,-0.0732,-0.8348,0.5526
835278,-0.0728,-0.8306,0.5452
835302,-0.0728,-0.8264,0.5382
835325,-0.0736,-0.8186,0.5259
835342,-0.0746,-0.8149,0.5208
835364,-0.0757,-0.8118,0.5164
835381,-0.0769,-0.8088,0.5127
835418,-0.0797,-0.8041,0.5074
835441,-0.0823,-0.8004,0.5046
835467,-0.0831,-0.7988,0.5042
835490,-0.0837,-0.7975,0.5040
835512,-0.0836,-0.7947,0.5051
835529,-0.0826,-0.7931,0.5061
835552,-0.0811,-0.7913,0.5074
835574,-0.0756,-0.7869,0.5107
835591,-0.0717,-0.7842,0.5128
835654,-0.0563,-0.7750,0.5209
835671,-0.0500,-0.7717,0.5244
835691,-0.0364,-0.7655,0.5333
835712,-0.0291,-0.7626,0.5388
835729,-0.0216,-0.7598,0.5448
835750,-0.0138,-0.7573,0.5514
835772,-0.0060,-0.7551,0.5585
835817,0.0184,-0.7505,0.5812
835840,0.0354,-0.7487,0.5964
835864,0.0441,-0.7480,0.6039
835887,0.0530,-0.7473,0.6110
835918,0.0712,-0.7452,0.6245
835936,0.0803,-0.7437,0.6310
835958,0.0989,-0.7388,0.6436
835979,0.1083,-0.7354,0.6497
836010,0.1265,-0.7266,0.6617
836033,0.1353,-0.7214,0.6677
836050,0.1438,-0.7158,0.6736
836072,0.1599,-0.7041,0.6852
836093,0.1676,-0.6981,0.6909
836110,0.1749,-0.6925,0.6965
836133,0.1818,-0.6873,0.7019
836155,0.1942,-0.6786,0.7122
836172,0.1996,-0.6755,0.7170
836189,0.2043,-0.6736,0.7218
836220,0.2124,-0.6741,0.7316
836257,0.2188,-0.6819,0.7428
836280,0.2214,-0.6892,0.7493
836303,0.2257,-0.7114,0.7629
836325,0.2264,-0.7263,0.7697
836348,0.2256,-0.7435,0.7754
836372,0.2157,-0.7839,0.7822
836397,0.2050,-0.8068,0.7820
836419,0.1683,-0.8566,0.7719
836456,0.1089,-0.9095,0.7463
836479,0.0706,-0.9360,0.7277
836503,-0.0201,-0.9860,0.6794
836527,-0.0706,-1.0083,0.6508
836550,-0.1227,-1.0282,0.6198
836575,-0.2267,-1.0592,0.5542
836601,-0.3225,-1.0762,0.4879
836618,-0.3649,-1.0789,0.4561
836682,-0.4620,-1.0634,0.3702
836703,-0.4994,-1.0347,0.3245
836726,-0.5098,-1.0155,0.3055
836748,-0.5149,-0.9938,0.2896
836765,-0.5151,-0.9697,0.2762
836787,-0.5027,-0.9174,0.2583
836804,-0.4908,-0.8901,0.2534
836828,-0.4762,-0.8629,0.2513
836859,-0.4396,-0.8107,0.2545
836882,-0.4188,-0.7865,0.2596
836899,-0.3745,-0.7437,0.2759
836921,-0.3518,-0.7255,0.2866
836944,-0.3291,-0.7096,0.2990
836961,-0.3066,-0.6964,0.3127
836983,-0.2634,-0.6777,0.3440
837007,-0.2428,-0.6722,0.3613
837045,-0.2040,-0.6687,0.3986
837067,-0.1691,-0.6738,0.4382
837092,-0.1532,-0.6793,0.4586
837133,-0.1128,-0.7053,0.5194
837158,-0.1016,-0.7163,0.5391
837180,-0.0914,-0.7280,0.5581
837202,-0.0743,-0.7528,0.5940
837241,-0.0610,-0.7784,0.6256
837264,-0.0513,-0.8030,0.6519
837288,-0.0476,-0.8143,0.6627
837311,-0.0446,-0.8247,0.6719
837333,-0.0404,-0.8417,0.6849
837356,-0.0392,-0.8475,0.6890
837399,-0.0378,-0.8538,0.6914
837438,-0.0387,-0.8481,0.6862
837462,-0.0404,-0.8361,0.6769
837479,-0.0416,-0.8282,0.6711
837501,-0.0428,-0.8197,0.6650
837524,-0.0442,-0.8107,0.6586
837541,-0.0455,-0.8014,0.6520
837563,-0.0481,-0.7830,0.6389
837584,-0.0493,-0.7744,0.6326
837603,-0.0502,-0.7662,0.6267
837621,-0.0509,-0.7588,0.6212
837643,-0.0513,-0.7522,0.6162
837702,-0.0492,-0.7339,0.6014
837723,-0.0479,-0.7316,0.5991
837740,-0.0461,-0.7300,0.5974
837762,-0.0416,-0.7292,0.5958
837785,-0.0389,-0.7299,0.5958
837808,-0.0359,-0.7311,0.5964
837825,-0.0326,-0.7328,0.5977
837846,-0.0255,-0.7372,0.6013
837876,-0.0184,-0.7423,0.6062
837898,-0.0150,-0.7449,0.6089
837923,-0.0117,-0.7474,0.6116
837945,-0.0059,-0.7521,0.6167
837968,-0.0033,-0.7544,0.6189
837990,-0.0009,-0.7566,0.6210
838010,0.0039,-0.7606,0.6241
838027,0.0063,-0.7625,0.6254
838085,0.0150,-0.7660,0.6284
838108,0.0186,-0.7661,0.6293
838125,0.0269,-0.7643,0.6309
838147,0.0312,-0.7621,0.6315
838170,0.0359,-0.7590,0.6317
838187,0.0403,-0.7550,0.6317
838209,0.0481,-0.7441,0.6309
838233,0.0514,-0.7368,0.6301
838264,0.0575,-0.7175,0.6289
838287,0.0609,-0.7056,0.6288
838304,0.0647,-0.6921,0.6290
838326,0.0754,-0.6628,0.6320
838348,0.0826,-0.6482,0.6349
838370,0.0911,-0.6343,0.6389
838388,0.1007,-0.6219,0.6444
838410,0.1227,-0.6050,0.6604
838435,0.1343,-0.6014,0.6714
838465,0.1567,-0.6057,0.6995
838488,0.1663,-0.6140,0.7161
838512,0.1785,-0.6428,0.7521
838534,0.1797,-0.6631,0.7704
838556,0.1694,-0.7134,0.8037
838573,0.1570,-0.7423,0.8174
838595,0.1394,-0.7731,0.8281
838617,0.1167,-0.8053,0.8352
838680,-0.0192,-0.9353,0.8192
838714,-0.1049,-0.9911,0.7842
838738,-0.1926,-1.0337,0.7350
838760,-0.2347,-1.0488,0.7067
838785,-0.2745,-1.0594,0.6765
838807,-0.3444,-1.0668,0.6135
838830,-0.3734,-1.0636,0.5817
838870,-0.4324,-1.0288,0.4901
838892,-0.4423,-1.0103,0.4622
838909,-0.4475,-0.9890,0.4360
838932,-0.4482,-0.9656,0.4120
838954,-0.4382,-0.9146,0.3708
838971,-0.4282,-0.8881,0.3539
839008,-0.4011,-0.8357,0.3276
839033,-0.3849,-0.8110,0.3184
839056,-0.3494,-0.7668,0.3073
839079,-0.3307,-0.7483,0.3055
839116,-0.2928,-0.7195,0.3091
839139,-0.2555,-0.7030,0.3214
839156,-0.2375,-0.6993,0.3303
839179,-0.2202,-0.6985,0.3409
839201,-0.2035,-0.7001,0.3531
839218,-0.1719,-0.7094,0.3811
839240,-0.1571,-0.7162,0.3966
839257,-0.1428,-0.7242,0.4127
839302,-0.1044,-0.7531,0.4625
839330,-0.0929,-0.7637,0.4790
839348,-0.0820,-0.7743,0.4951
839370,-0.0620,-0.7957,0.5256
839392,-0.0529,-0.8059,0.5397
839415,-0.0443,-0.8158,0.5526
839437,-0.0294,-0.8336,0.5745
839462,-0.0232,-0.8416,0.5833
839492,-0.0133,-0.8550,0.5956
839515,-0.0099,-0.8604,0.5992
839538,-0.0061,-0.8680,0.6018
839561,-0.0059,-0.8705,0.6008
839583,-0.0079,-0.8719,0.5957
839600,-0.0103,-0.8712,0.5918
839633,-0.0168,-0.8671,0.5823
839653,-0.0209,-0.8638,0.5770
839730,-0.0403,-0.8457,0.5560
839748,-0.0454,-0.8406,0.5514
839768,-0.0552,-0.8308,0.5431
839791,-0.0597,-0.8262,0.5397
839810,-0.0638,-0.8220,0.5366
839831,-0.0677,-0.8182,0.5339
839853,-0.0742,-0.8120,0.5300
839872,-0.0768,-0.8097,0.5287
839894,-0.0790,-0.8079,0.5276
839914,-0.0808,-0.8065,0.5267
839959,-0.0840,-0.8051,0.5258
839984,-0.0846,-0.8059,0.5259
840006,-0.0847,-0.8068,0.5261
840025,-0.0846,-0.8079,0.5266
840047,-0.0840,-0.8107,0.5278
840069,-0.0835,-0.8123,0.5286
840086,-0.0831,-0.8138,0.5293
840131,-0.0818,-0.8185,0.5320
840154,-0.0814,-0.8198,0.5330
840179,-0.0807,-0.8224,0.5348
840201,-0.0804,-0.8235,0.5358
840240,-0.0801,-0.8253,0.5375
840258,-0.0800,-0.8259,0.5382
840282,-0.0800,-0.8269,0.5393
840305,-0.0800,-0.8273,0.5397
840347,-0.0801,-0.8275,0.5400
840370,-0.0801,-0.8274,0.5400
840387,-0.0801,-0.8271,0.5400
840409,-0.0800,-0.8267,0.5399
840430,-0.0796,-0.8256,0.5396
840449,-0.0792,-0.8248,0.5393
840472,-0.0787,-0.8240,0.5391
840489,-0.0782,-0.8231,0.5388
840533,-0.0764,-0.8206,0.5380
840567,-0.0752,-0.8192,0.5375
840585,-0.0747,-0.8188,0.5374
840607,-0.0742,-0.8185,0.5372
840627,-0.0737,-0.8185,0.5372
840649,-0.0731,-0.8190,0.5372
840670,-0.0729,-0.8196,0.5372
840694,-0.0728,-0.8217,0.5371
840751,-0.0726,-0.8263,0.5363
840772,-0.0725,-0.8281,0.5358
840794,-0.0720,-0.8319,0.5344
840817,-0.0715,-0.8339,0.5336
840835,-0.0710,-0.8357,0.5325
840859,-0.0696,-0.8389,0.5300
840881,-0.0687,-0.8403,0.5286
840921,-0.0668,-0.8425,0.5255
840943,-0.0647,-0.8439,0.5225
840960,-0.0635,-0.8444,0.5210
840983,-0.0624,-0.8446,0.5197
841005,-0.0613,-0.8446,0.5183
841022,-0.0602,-0.8445,0.5172
841044,-0.0582,-0.8436,0.5151
841067,-0.0573,-0.8430,0.5144
841084,-0.0565,-0.8424,0.5137
841101,-0.0558,-0.8418,0.5131
841123,-0.0552,-0.8412,0.5127
841183,-0.0540,-0.8391,0.5118
841208,-0.0538,-0.8387,0.5120
841230,-0.0540,-0.8387,0.5121
841253,-0.0541,-0.8389,0.5122
841270,-0.0543,-0.8391,0.5123
841292,-0.0551,-0.8398,0.5125
841309,-0.0554,-0.8403,0.5125
841354,-0.0560,-0.8416,0.5121
841377,-0.0564,-0.8431,0.5114
841394,-0.0565,-0.8440,0.5107
841417,-0.0566,-0.8448,0.5100
841438,-0.0566,-0.8457,0.5090
841468,-0.0566,-0.8473,0.5070
841486,-0.0568,-0.8478,0.5057
841503,-0.0569,-0.8483,0.5046
841524,-0.0573,-0.8489,0.5024
841561,-0.0580,-0.8489,0.5007
841584,-0.0585,-0.8486,0.5000
841608,-0.0597,-0.8480,0.4991
841630,-0.0603,-0.8475,0.4989
841650,-0.0610,-0.8470,0.4987
841673,-0.0624,-0.8457,0.4987
841694,-0.0630,-0.8450,0.4987
841713,-0.0636,-0.8442,0.4987
841774,-0.0649,-0.8413,0.4987
841795,-0.0651,-0.8408,0.4987
841813,-0.0648,-0.8403,0.4988
841835,-0.0646,-0.8400,0.4989
841857,-0.0636,-0.8397,0.4996
841874,-0.0630,-0.8398,0.5001
841897,-0.0623,-0.8401,0.5009
841914,-0.0616,-0.8405,0.5016
841954,-0.0594,-0.8423,0.5043
841975,-0.0587,-0.8430,0.5052
841992,-0.0581,-0.8439,0.5063
842014,-0.0575,-0.8447,0.5074
842036,-0.0563,-0.8464,0.5098
842053,-0.0559,-0.8473,0.5109
842075,-0.0555,-0.8480,0.5120
842099,-0.0552,-0.8486,0.5129
842140,-0.0546,-0.8497,0.5153
842163,-0.0544,-0.8499,0.5157
842180,-0.0543,-0.8497,0.5160
842202,-0.0541,-0.8491,0.5160
842224,-0.0540,-0.8486,0.5156
842241,-0.0538,-0.8481,0.5151
842264,-0.0537,-0.8475,0.5145
842286,-0.0535,-0.8461,0.5127
842303,-0.0533,-0.8453,0.5115
842320,-0.0532,-0.8446,0.5103
842343,-0.0531,-0.8438,0.5088
842387,-0.0529,-0.8409,0.5048
842411,-0.0527,-0.8400,0.5038
842429,-0.0525,-0.8389,0.5032
842451,-0.0520,-0.8365,0.5032
842472,-0.0518,-0.8352,0.5039
842496,-0.0515,-0.8339,0.5051
842520,-0.0511,-0.8312,0.5094
842543,-0.0509,-0.8298,0.5122
842573,-0.0509,-0.8274,0.5194
842596,-0.0509,-0.8263,0.5234
842621,-0.0515,-0.8245,0.5323
842642,-0.0520,-0.8237,0.5370
842663,-0.0525,-0.8231,0.5415
842685,-0.0538,-0.8225,0.5499
842716,-0.0553,-0.8226,0.5565
842734,-0.0562,-0.8230,0.5590
842798,-0.0593,-0.8259,0.5616
842818,-0.0599,-0.8270,0.5605
842841,-0.0604,-0.8281,0.5587
842863,-0.0607,-0.8291,0.5564
842880,-0.0607,-0.8298,0.5536
842902,-0.0596,-0.8304,0.5470
842927,-0.0583,-0.8301,0.5436
842967,-0.0515,-0.8260,0.5343
842989,-0.0482,-0.8239,0.5321
843020,-0.0404,-0.8182,0.5302
843043,-0.0360,-0.8148,0.5306
843067,-0.0262,-0.8074,0.5354
843090,-0.0210,-0.8032,0.5397
843112,-0.0156,-0.7990,0.5452
843152,0.0013,-0.7852,0.5693
843175,0.0073,-0.7806,0.5797
843192,0.0134,-0.7761,0.5908
843214,0.0262,-0.7679,0.6150
843237,0.0328,-0.7645,0.6277
843261,0.0398,-0.7615,0.6404
843283,0.0541,-0.7566,0.6652
843325,0.0684,-0.7534,0.6871
843358,0.0819,-0.7510,0.7047
843381,0.0935,-0.7493,0.7161
843398,0.0980,-0.7485,0.7188
843421,0.1013,-0.7483,0.7194
843443,0.1033,-0.7485,0.7174
843460,0.1035,-0.7494,0.7129
843481,0.0981,-0.7542,0.6952
843503,0.0924,-0.7583,0.6820
843527,0.0748,-0.7716,0.6476
843544,0.0634,-0.7809,0.6270
843566,0.0504,-0.7921,0.6045
843611,0.0055,-0.8368,0.5309
843635,-0.0109,-0.8546,0.5059
843658,-0.0276,-0.8734,0.4814
843679,-0.0614,-0.9122,0.4358
843701,-0.0784,-0.9312,0.4153
843725,-0.0951,-0.9491,0.3967
843743,-0.1270,-0.9806,0.3660
843765,-0.1416,-0.9933,0.3539
843819,-0.1783,-1.0157,0.3306
843844,-0.1956,-1.0162,0.3245
843867,-0.2018,-1.0121,0.3235
843889,-0.2067,-1.0054,0.3236
843906,-0.2100,-0.9962,0.3246
843936,-0.2130,-0.9722,0.3279
843955,-0.2130,-0.9583,0.3300
844002,-0.2084,-0.9137,0.3367
844024,-0.2031,-0.8860,0.3419
844041,-0.2002,-0.8735,0.3450
844063,-0.1971,-0.8624,0.3485
844086,-0.1941,-0.8525,0.3524
844103,-0.1910,-0.8440,0.3569
844125,-0.1847,-0.8308,0.3678
844150,-0.1814,-0.8260,0.3739
844187,-0.1750,-0.8201,0.3872
844210,-0.1687,-0.8180,0.4017
844243,-0.1616,-0.8197,0.4170
844266,-0.1577,-0.8217,0.4248
844290,-0.1490,-0.8275,0.4404
844312,-0.1442,-0.8313,0.4481
844335,-0.1392,-0.8353,0.4554
844375,-0.1226,-0.8494,0.4749
844398,-0.1167,-0.8542,0.4803
844415,-0.1108,-0.8589,0.4852
844437,-0.1051,-0.8633,0.4894
844459,-0.0940,-0.8705,0.4955
844483,-0.0887,-0.8732,0.4974
844505,-0.0792,-0.8770,0.4993
844541,-0.0712,-0.8783,0.4987
844560,-0.0676,-0.8782,0.4976
844616,-0.0598,-0.8755,0.4927
844635,-0.0581,-0.8738,0.4907
844657,-0.0563,-0.8696,0.4868
844679,-0.0560,-0.8672,0.4851
844701,-0.0562,-0.8645,0.4835
844721,-0.0579,-0.8591,0.4811
844743,-0.0593,-0.8564,0.4803
844762,-0.0609,-0.8540,0.4799
844785,-0.0629,-0.8516,0.4796
844810,-0.0670,-0.8477,0.4802
844859,-0.0735,-0.8439,0.4833
844883,-0.0756,-0.8433,0.4847
844901,-0.0776,-0.8430,0.4863
844923,-0.0812,-0.8435,0.4897
844945,-0.0826,-0.8441,0.4913
844964,-0.0841,-0.8448,0.4927
844984,-0.0853,-0.8459,0.4940
845005,-0.0873,-0.8481,0.4958
845045,-0.0886,-0.8503,0.4968
845067,-0.0890,-0.8513,0.4969
845084,-0.0892,-0.8522,0.4969
845106,-0.0894,-0.8534,0.4966
845129,-0.0892,-0.8538,0.4962
845146,-0.0890,-0.8539,0.4960
845185,-0.0875,-0.8533,0.4952
845229,-0.0857,-0.8522,0.4952
845252,-0.0833,-0.8507,0.4960
845277,-0.0819,-0.8499,0.4965
845299,-0.0803,-0.8490,0.4971
845321,-0.0773,-0.8474,0.4984
845338,-0.0759,-0.8467,0.4990
845361,-0.0747,-0.8462,0.4995
845378,-0.0736,-0.8457,0.5000
845434,-0.0721,-0.8445,0.5006
845457,-0.0724,-0.8442,0.5005
845491,-0.0739,-0.8434,0.4996
845513,-0.0750,-0.8427,0.4990
845530,-0.0763,-0.8417,0.4984
845552,-0.0798,-0.8390,0.4968
845574,-0.0820,-0.8373,0.4962
845613,-0.0869,-0.8334,0.4952
845634,-0.0925,-0.8291,0.4950
845656,-0.0953,-0.8268,0.4954
845677,-0.0981,-0.8246,0.4960
845699,-0.1031,-0.8203,0.4979
845723,-0.1051,-0.8182,0.4994
845746,-0.1066,-0.8162,0.5011
845768,-0.1075,-0.8123,0.5052
845792,-0.1067,-0.8103,0.5077
845842,-0.0988,-0.8053,0.5161
845867,-0.0892,-0.8025,0.5227
845890,-0.0834,-0.8013,0.5264
845912,-0.0769,-0.8003,0.5303
845929,-0.0699,-0.7994,0.5345
845951,-0.0552,-0.7987,0.5443
845974,-0.0474,-0.7988,0.5499
845997,-0.0315,-0.8007,0.5625
846014,-0.0234,-0.8024,0.5696
846037,-0.0155,-0.8047,0.5769
846084,0.0078,-0.8138,0.6002
846108,0.0153,-0.8171,0.6079
846126,0.0223,-0.8204,0.6152
846148,0.0356,-0.8259,0.6283
846171,0.0417,-0.8279,0.6337
846188,0.0474,-0.8291,0.6382
846212,0.0571,-0.8292,0.6443
846234,0.0614,-0.8280,0.6459
846271,0.0684,-0.8232,0.6459
846294,0.0710,-0.8198,0.6444
846318,0.0746,-0.8109,0.6388
846341,0.0752,-0.8059,0.6345
846363,0.0736,-0.7959,0.6234
846380,0.0709,-0.7914,0.6165
846410,0.0614,-0.7847,0.6002
846427,0.0543,-0.7830,0.5909
846464,0.0355,-0.7844,0.5704
846486,0.0238,-0.7881,0.5593
846510,-0.0040,-0.8014,0.5359
846532,-0.0198,-0.8112,0.5239
846555,-0.0365,-0.8225,0.5118
846572,-0.0540,-0.8353,0.5000
846594,-0.0908,-0.8639,0.4769
846614,-0.1097,-0.8788,0.4659
846653,-0.1470,-0.9077,0.4458
846675,-0.1647,-0.9211,0.4368
846714,-0.2112,-0.9523,0.4141
846737,-0.2235,-0.9587,0.4081
846761,-0.2426,-0.9646,0.3983
846784,-0.2490,-0.9639,0.3944
846806,-0.2534,-0.9608,0.3911
846823,-0.2560,-0.9557,0.3883
846875,-0.2482,-0.9187,0.3835
846899,-0.2424,-0.9071,0.3839
846922,-0.2356,-0.8953,0.3849
846944,-0.2195,-0.8724,0.3885
846961,-0.2107,-0.8619,0.3912
846984,-0.2014,-0.8524,0.3947
847015,-0.1821,-0.8367,0.4036
847035,-0.1721,-0.8304,0.4091
847057,-0.1517,-0.8209,0.4218
847079,-0.1416,-0.8175,0.4287
847109,-0.1215,-0.8135,0.4431
847132,-0.1116,-0.8126,0.4506
847158,-0.0925,-0.8134,0.4651
847181,-0.0836,-0.8149,0.4722
847203,-0.0752,-0.8174,0.4788
847220,-0.0674,-0.8206,0.4851
847237,-0.0604,-0.8245,0.4908
847259,-0.0491,-0.8335,0.5006
847304,-0.0411,-0.8478,0.5114
847332,-0.0366,-0.8521,0.5139
847350,-0.0356,-0.8558,0.5160
847372,-0.0358,-0.8615,0.5187
847394,-0.0367,-0.8634,0.5193
847411,-0.0383,-0.8645,0.5194
847434,-0.0403,-0.8651,0.5192
847491,-0.0515,-0.8619,0.5145
847509,-0.0546,-0.8602,0.5128
847532,-0.0577,-0.8584,0.5111
847554,-0.0637,-0.8544,0.5076
847571,-0.0665,-0.8523,0.5059
847593,-0.0691,-0.8503,0.5043
847631,-0.0736,-0.8466,0.5015
847651,-0.0757,-0.8450,0.5004
847671,-0.0789,-0.8420,0.4985
847694,-0.0802,-0.8409,0.4979
847723,-0.0822,-0.8391,0.4972
847744,-0.0829,-0.8385,0.4972
847766,-0.0834,-0.8380,0.4972
847786,-0.0840,-0.8375,0.4979
847807,-0.0841,-0.8375,0.4985
847832,-0.0840,-0.8378,0.4993
847857,-0.0836,-0.8385,0.5010
847880,-0.0833,-0.8390,0.5021
847934,-0.0808,-0.8411,0.5071
847961,-0.0801,-0.8414,0.5085
847984,-0.0793,-0.8417,0.5100
848004,-0.0781,-0.8417,0.5127
848027,-0.0778,-0.8414,0.5139
848044,-0.0774,-0.8412,0.5151
848061,-0.0773,-0.8407,0.5164
848083,-0.0774,-0.8401,0.5175
848120,-0.0785,-0.8384,0.5209
848142,-0.0791,-0.8379,0.5221
848166,-0.0797,-0.8373,0.5232
848188,-0.0813,-0.8362,0.5254
848211,-0.0822,-0.8356,0.5265
848231,-0.0830,-0.8350,0.5275
848262,-0.0845,-0.8335,0.5293
848280,-0.0850,-0.8325,0.5300
848310,-0.0856,-0.8302,0.5312
848333,-0.0851,-0.8269,0.5320
848350,-0.0845,-0.8251,0.5321
848372,-0.0834,-0.8229,0.5320
848395,-0.0819,-0.8206,0.5316
848412,-0.0800,-0.8180,0.5311
848433,-0.0747,-0.8121,0.5294
848455,-0.0714,-0.8088,0.5283
848494,-0.0636,-0.8019,0.5260
848517,-0.0546,-0.7950,0.5238
848534,-0.0497,-0.7919,0.5232
848565,-0.0398,-0.7865,0.5232
848587,-0.0348,-0.7845,0.5242
848604,-0.0299,-0.7831,0.5260
848625,-0.0253,-0.7823,0.5284
848645,-0.0209,-0.7822,0.5316
848668,-0.0132,-0.7843,0.5392
848685,-0.0099,-0.7865,0.5436
848708,-0.0068,-0.7893,0.5481
848745,-0.0016,-0.7959,0.5569
848768,0.0029,-0.8021,0.5649
848785,0.0049,-0.8042,0.5684
848808,0.0070,-0.8054,0.5713
848833,0.0112,-0.8041,0.5765
848853,0.0137,-0.8013,0.5790
848877,0.0166,-0.7970,0.5815
848898,0.0236,-0.7838,0.5876
848951,0.0386,-0.7534,0.6007
848974,0.0449,-0.7411,0.6061
848991,0.0518,-0.7281,0.6117
849013,0.0668,-0.7019,0.6235
849035,0.0748,-0.6897,0.6299
849053,0.0833,-0.6787,0.6366
849075,0.0917,-0.6693,0.6438
849092,0.1001,-0.6622,0.6519
849129,0.1232,-0.6588,0.6829
849151,0.1294,-0.6647,0.6967
849178,0.1385,-0.6869,0.7295
849202,0.1409,-0.7028,0.7480
849224,0.1411,-0.7209,0.7671
849248,0.1340,-0.7635,0.8022
849271,0.1259,-0.7871,0.8160
849295,0.0990,-0.8375,0.8312
849335,0.0582,-0.8904,0.8254
849358,0.0330,-0.9169,0.8137
849375,0.0044,-0.9432,0.7960
849396,-0.0610,-0.9939,0.7437
849419,-0.0973,-1.0175,0.7102
849436,-0.1350,-1.0391,0.6730
849458,-0.1735,-1.0585,0.6329
849489,-0.2496,-1.0889,0.5488
849522,-0.3193,-1.1060,0.4647
849545,-0.3770,-1.1078,0.3859
849562,-0.3997,-1.1028,0.3496
849585,-0.4176,-1.0939,0.3157
849607,-0.4305,-1.0813,0.2845
849624,-0.4384,-1.0653,0.2563
849644,-0.4386,-1.0247,0.2094
849664,-0.4313,-1.0009,0.1910
849687,-0.4194,-0.9756,0.1763
849704,-0.4036,-0.9493,0.1654
849726,-0.3619,-0.8965,0.1550
849771,-0.3113,-0.8464,0.1600
849795,-0.2556,-0.8029,0.1802
849812,-0.2273,-0.7843,0.1954
849835,-0.1992,-0.7683,0.2136
849857,-0.1456,-0.7448,0.2572
849874,-0.1210,-0.7374,0.2817
849896,-0.0981,-0.7330,0.3075
849915,-0.0774,-0.7313,0.3340
849976,-0.0178,-0.7483,0.4382
850001,-0.0087,-0.7570,0.4622
850023,0.0032,-0.7781,0.5055
850045,0.0063,-0.7899,0.5245
850062,0.0079,-0.8025,0.5417
850100,0.0070,-0.8282,0.5702
850118,0.0049,-0.8409,0.5812
850148,-0.0021,-0.8644,0.5967
850171,-0.0067,-0.8745,0.6012
850194,-0.0181,-0.8904,0.6038
850217,-0.0247,-0.8958,0.6021
850239,-0.0387,-0.9006,0.5941
850256,-0.0460,-0.9004,0.5884
850292,-0.0603,-0.8953,0.5743
850317,-0.0670,-0.8909,0.5665
850347,-0.0793,-0.8790,0.5507
850369,-0.0848,-0.8722,0.5428
850411,-0.0979,-0.8501,0.5217
850434,-0.1011,-0.8428,0.5159
850458,-0.1057,-0.8292,0.5062
850481,-0.1073,-0.8232,0.5026
850503,-0.1084,-0.8179,0.4998
850555,-0.1091,-0.8037,0.4963
850578,-0.1086,-0.8021,0.4972
850595,-0.1080,-0.8014,0.4987
850617,-0.1074,-0.8013,0.5005
850637,-0.1060,-0.8027,0.5049
850659,-0.1053,-0.8042,0.5073
850680,-0.1049,-0.8059,0.5099
850708,-0.1042,-0.8101,0.5150
850726,-0.1042,-0.8121,0.5176
850749,-0.1045,-0.8142,0.5201
850768,-0.1049,-0.8160,0.5226
850805,-0.1072,-0.8197,0.5300
850828,-0.1083,-0.8203,0.5323
850845,-0.1096,-0.8204,0.5345
850864,-0.1108,-0.8203,0.5366
850887,-0.1134,-0.8188,0.5399
850910,-0.1144,-0.8177,0.5414
850930,-0.1151,-0.8164,0.5425
850950,-0.1155,-0.8147,0.5433
850970,-0.1149,-0.8108,0.5443
851023,-0.1108,-0.8033,0.5442
851051,-0.1064,-0.7980,0.5431
851068,-0.1040,-0.7954,0.5424
851090,-0.1013,-0.7932,0.5415
851113,-0.0986,-0.7914,0.5409
851132,-0.0959,-0.7899,0.5403
851154,-0.0907,-0.7882,0.5400
851177,-0.0881,-0.7881,0.5403
851207,-0.0833,-0.7887,0.5422
851230,-0.0808,-0.7896,0.5439
851254,-0.0759,-0.7917,0.5488
851277,-0.0732,-0.7931,0.5520
851297,-0.0703,-0.7946,0.5558
851321,-0.0638,-0.7972,0.5647
851361,-0.0562,-0.7997,0.5753
851406,-0.0430,-0.8020,0.5929
851429,-0.0382,-0.8024,0.5989
851455,-0.0289,-0.8030,0.6101
851478,-0.0243,-0.8031,0.6152
851500,-0.0157,-0.8033,0.6241
851517,-0.0118,-0.8033,0.6278
851540,-0.0083,-0.8032,0.6310
851557,-0.0051,-0.8029,0.6335
851601,0.0018,-0.7994,0.6385
851624,0.0035,-0.7974,0.6398
851662,0.0060,-0.7920,0.6418
851684,0.0078,-0.7852,0.6443
851706,0.0087,-0.7816,0.6458
851723,0.0095,-0.7778,0.6473
851745,0.0106,-0.7742,0.6493
851762,0.0120,-0.7706,0.6515
851800,0.0179,-0.7609,0.6600
851822,0.0208,-0.7582,0.6637
851846,0.0281,-0.7533,0.6718
851867,0.0323,-0.7511,0.6759
851890,0.0369,-0.7489,0.6796
851907,0.0415,-0.7468,0.6826
851929,0.0508,-0.7426,0.6857
851966,0.0588,-0.7385,0.6830
852016,0.0643,-0.7338,0.6661
852041,0.0630,-0.7332,0.6572
852063,0.0537,-0.7345,0.6360
852085,0.0454,-0.7367,0.6243
852102,0.0348,-0.7402,0.6125
852125,0.0219,-0.7451,0.6010
852147,-0.0105,-0.7594,0.5793
852164,-0.0297,-0.7689,0.5695
852181,-0.0508,-0.7799,0.5601
852204,-0.0734,-0.7921,0.5514
852248,-0.1459,-0.8330,0.5303
852272,-0.1698,-0.8466,0.5251
852290,-0.1927,-0.8594,0.5211
852312,-0.2336,-0.8809,0.5162
852333,-0.2509,-0.8889,0.5154
852357,-0.2654,-0.8949,0.5154
852379,-0.2860,-0.9003,0.5171
852396,-0.2919,-0.8998,0.5181
852441,-0.2950,-0.8940,0.5181
852464,-0.2874,-0.8838,0.5122
852483,-0.2799,-0.8779,0.5060
852506,-0.2706,-0.8721,0.4972
852528,-0.2479,-0.8618,0.4709
852545,-0.2354,-0.8580,0.4539
852575,-0.2089,-0.8535,0.4136
852593,-0.1951,-0.8528,0.3918
852631,-0.1671,-0.8536,0.3486
852652,-0.1532,-0.8551,0.3284
852674,-0.1394,-0.8569,0.3097
852694,-0.1132,-0.8615,0.2792
852716,-0.1008,-0.8641,0.2679
852740,-0.0891,-0.8671,0.2598
852762,-0.0677,-0.8738,0.2532
852785,-0.0580,-0.8776,0.2549
852825,-0.0333,-0.8900,0.2769
852857,-0.0211,-0.8982,0.3026
852886,-0.0164,-0.9021,0.3175
852909,-0.0093,-0.9088,0.3495
852934,-0.0068,-0.9115,0.3656
852956,-0.0052,-0.9138,0.3816
852978,-0.0037,-0.9165,0.4111
853035,-0.0054,-0.9159,0.4462
853060,-0.0084,-0.9125,0.4618
853083,-0.0104,-0.9100,0.4672
853105,-0.0126,-0.9073,0.4709
853122,-0.0172,-0.9011,0.4745
853144,-0.0195,-0.8978,0.4745
853179,-0.0240,-0.8914,0.4716
853199,-0.0262,-0.8883,0.4690
853221,-0.0283,-0.8853,0.4659
853243,-0.0319,-0.8798,0.4590
853274,-0.0349,-0.8750,0.4520
853297,-0.0363,-0.8730,0.4489
853321,-0.0385,-0.8699,0.4436
853343,-0.0394,-0.8688,0.4417
853386,-0.0410,-0.8674,0.4395
853404,-0.0422,-0.8672,0.4395
853421,-0.0426,-0.8674,0.4402
853443,-0.0430,-0.8679,0.4414
853480,-0.0435,-0.8695,0.4448
853504,-0.0437,-0.8715,0.4490
853523,-0.0439,-0.8724,0.4513
853546,-0.0442,-0.8734,0.4535
853568,-0.0443,-0.8744,0.4557
853585,-0.0446,-0.8752,0.4578
853608,-0.0452,-0.8763,0.4615
853631,-0.0454,-0.8767,0.4633
853668,-0.0460,-0.8771,0.4658
853689,-0.0466,-0.8771,0.4675
853712,-0.0469,-0.8770,0.4681
853734,-0.0470,-0.8767,0.4686
853754,-0.0474,-0.8759,0.4689
853777,-0.0475,-0.8754,0.4688
853809,-0.0477,-0.8740,0.4681
853827,-0.0477,-0.8734,0.4678
853869,-0.0479,-0.8713,0.4659
853889,-0.0480,-0.8708,0.4653
853914,-0.0480,-0.8704,0.4647
853935,-0.0482,-0.8698,0.4635
853955,-0.0483,-0.8695,0.4630
853980,-0.0486,-0.8695,0.4625
854002,-0.0492,-0.8696,0.4615
854020,-0.0497,-0.8698,0.4612
854082,-0.0516,-0.8704,0.4601
854114,-0.0532,-0.8706,0.4596
854132,-0.0540,-0.8706,0.4592
854154,-0.0555,-0.8702,0.4587
854177,-0.0564,-0.8699,0.4584
854194,-0.0571,-0.8695,0.4581
854216,-0.0587,-0.8685,0.4576
854233,-0.0594,-0.8680,0.4575
854270,-0.0608,-0.8667,0.4578
854293,-0.0614,-0.8660,0.4580
854317,-0.0625,-0.8641,0.4590
854340,-0.0630,-0.8632,0.4597
854360,-0.0632,-0.8622,0.4606
854384,-0.0636,-0.8600,0.4626
854415,-0.0632,-0.8577,0.4652
854432,-0.0626,-0.8566,0.4667
854469,-0.0604,-0.8544,0.4695
854492,-0.0587,-0.8531,0.4709
854516,-0.0535,-0.8507,0.4741
854539,-0.0499,-0.8494,0.4757
854561,-0.0457,-0.8478,0.4775
854578,-0.0408,-0.8459,0.4794
854600,-0.0291,-0.8417,0.4839
854623,-0.0225,-0.8390,0.4866
854664,-0.0007,-0.8297,0.4974
854685,0.0067,-0.8263,0.5023
854717,0.0209,-0.8195,0.5140
854740,0.0273,-0.8164,0.5209
854764,0.0386,-0.8116,0.5365
854786,0.0431,-0.8102,0.5449
854809,0.0469,-0.8094,0.5537
854826,0.0499,-0.8092,0.5629
854849,0.0541,-0.8103,0.5814
854867,0.0554,-0.8114,0.5907
854914,0.0576,-0.8147,0.6169
854937,0.0581,-0.8154,0.6249
854961,0.0587,-0.8158,0.6322
854983,0.0607,-0.8153,0.6445
855025,0.0641,-0.8130,0.6534
855043,0.0665,-0.8113,0.6564
855061,0.0725,-0.8071,0.6591
855083,0.0760,-0.8048,0.6588
855136,0.0862,-0.7977,0.6511
855161,0.0902,-0.7933,0.6403
855183,0.0905,-0.7915,0.6333
855206,0.0891,-0.7902,0.6254
855223,0.0859,-0.7896,0.6165
855245,0.0732,-0.7911,0.5964
855262,0.0637,-0.7938,0.5853
855307,0.0385,-0.8038,0.5613
855331,0.0056,-0.8204,0.5345
855348,-0.0133,-0.8311,0.5203
855370,-0.0338,-0.8430,0.5052
855391,-0.0554,-0.8560,0.4899
855415,-0.1016,-0.8834,0.4581
855438,-0.1251,-0.8971,0.4424
855462,-0.1715,-0.9227,0.4131
855499,-0.2139,-0.9432,0.3878
855522,-0.2329,-0.9508,0.3771
855546,-0.2653,-0.9598,0.3591
855569,-0.2783,-0.9611,0.3519
855591,-0.2892,-0.9602,0.3458
855608,-0.3041,-0.9530,0.3363
855632,-0.3083,-0.9470,0.3328
855654,-0.3107,-0.9399,0.3300
855708,-0.3031,-0.9044,0.3236
855728,-0.2980,-0.8949,0.3230
855745,-0.2920,-0.8856,0.3229
855768,-0.2853,-0.8766,0.3230
855790,-0.2781,-0.8682,0.3234
855807,-0.2626,-0.8538,0.3258
855829,-0.2544,-0.8480,0.3279
855852,-0.2460,-0.8431,0.3307
855871,-0.2372,-0.8392,0.3345
855892,-0.2189,-0.8336,0.3444
855915,-0.2095,-0.8320,0.3505
855960,-0.1813,-0.8311,0.3721
855983,-0.1724,-0.8322,0.3801
856000,-0.1637,-0.8339,0.3884
856022,-0.1555,-0.8364,0.3970
856044,-0.1404,-0.8433,0.4142
856061,-0.1337,-0.8477,0.4226
856079,-0.1273,-0.8524,0.4309
856102,-0.1216,-0.8574,0.4387
856156,-0.1036,-0.8772,0.4629
856180,-0.1006,-0.8812,0.4667
856203,-0.0984,-0.8844,0.4695
856241,-0.0951,-0.8889,0.4727
856258,-0.0952,-0.8890,0.4725
856283,-0.0956,-0.8884,0.4718
856305,-0.0975,-0.8859,0.4698
856336,-0.0989,-0.8842,0.4686
856358,-0.1018,-0.8804,0.4662
856396,-0.1050,-0.8765,0.4641
856414,-0.1064,-0.8746,0.4631
856437,-0.1088,-0.8713,0.4618
856459,-0.1097,-0.8699,0.4613
856476,-0.1105,-0.8685,0.4611
856493,-0.1110,-0.8673,0.4608
856516,-0.1113,-0.8662,0.4606
856569,-0.1104,-0.8636,0.4603
856593,-0.1096,-0.8634,0.4603
856617,-0.1086,-0.8632,0.4603
856637,-0.1062,-0.8632,0.4602
856654,-0.1050,-0.8633,0.4600
856674,-0.1035,-0.8633,0.4598
856697,-0.1022,-0.8634,0.4596
856742,-0.0981,-0.8634,0.4589
856763,-0.0969,-0.8634,0.4587
856786,-0.0948,-0.8632,0.4585
856808,-0.0940,-0.8630,0.4585
856831,-0.0933,-0.8628,0.4585
856859,-0.0924,-0.8623,0.4590
856879,-0.0923,-0.8619,0.4592
856898,-0.0922,-0.8616,0.4597
856918,-0.0924,-0.8607,0.4608
856958,-0.0931,-0.8600,0.4623
856979,-0.0935,-0.8597,0.4630
857003,-0.0944,-0.8593,0.4647
857026,-0.0947,-0.8591,0.4657
857048,-0.0951,-0.8591,0.4666
857065,-0.0955,-0.8591,0.4674
857087,-0.0958,-0.8593,0.4691
857105,-0.0959,-0.8594,0.4700
857167,-0.0952,-0.8608,0.4728
857188,-0.0948,-0.8613,0.4733
857205,-0.0944,-0.8618,0.4738
857228,-0.0939,-0.8622,0.4744
857250,-0.0927,-0.8627,0.4753
857267,-0.0920,-0.8627,0.4758
857290,-0.0913,-0.8624,0.4766
857314,-0.0907,-0.8619,0.4773
857350,-0.0892,-0.8591,0.4801
857373,-0.0890,-0.8578,0.4813
857397,-0.0887,-0.8563,0.4827
857419,-0.0884,-0.8525,0.4858
857442,-0.0881,-0.8503,0.4877
857459,-0.0879,-0.8479,0.4897
857496,-0.0869,-0.8422,0.4939
857537,-0.0836,-0.8318,0.5009
857560,-0.0818,-0.8280,0.5034
857577,-0.0796,-0.8242,0.5061
857599,-0.0745,-0.8171,0.5122
857622,-0.0717,-0.8141,0.5156
857644,-0.0688,-0.8115,0.5192
857666,-0.0636,-0.8083,0.5267
857686,-0.0612,-0.8080,0.5306
857703,-0.0590,-0.8086,0.5347
857720,-0.0569,-0.8102,0.5387
857743,-0.0547,-0.8126,0.5427
857787,-0.0466,-0.8239,0.5553
857811,-0.0430,-0.8279,0.5594
857838,-0.0337,-0.8354,0.5674
857861,-0.0280,-0.8385,0.5710
857883,-0.0144,-0.8423,0.5781
857900,-0.0067,-0.8431,0.5815
857925,0.0017,-0.8431,0.5851
857946,0.0197,-0.8409,0.5919
857984,0.0383,-0.8363,0.5985
858007,0.0475,-0.8331,0.6016
858031,0.0643,-0.8256,0.6062
858054,0.0718,-0.8212,0.6072
858076,0.0782,-0.8167,0.6071
858093,0.0835,-0.8121,0.6052
858116,0.0896,-0.8038,0.5959
858134,0.0902,-0.8003,0.5880
858196,0.0731,-0.7960,0.5352
858221,0.0637,-0.7982,0.5173
858243,0.0522,-0.8020,0.4984
858265,0.0236,-0.8152,0.4585
858282,0.0067,-0.8246,0.4386
858305,-0.0112,-0.8359,0.4193
858328,-0.0496,-0.8630,0.3846
858366,-0.0886,-0.8939,0.3575
858389,-0.1077,-0.9099,0.3474
858420,-0.1436,-0.9412,0.3344
858438,-0.1598,-0.9558,0.3312
858459,-0.1876,-0.9813,0.3313
858481,-0.1989,-0.9916,0.3340
858498,-0.2081,-0.9996,0.3381
858521,-0.2155,-1.0051,0.3434
858538,-0.2207,-1.0079,0.3494
858576,-0.2255,-1.0005,0.3680
858598,-0.2236,-0.9933,0.3737
858615,-0.2203,-0.9843,0.3785
858636,-0.2158,-0.9738,0.3827
858656,-0.2101,-0.9622,0.3860
858678,-0.1965,-0.9379,0.3898
858701,-0.1890,-0.9258,0.3905
858728,-0.1735,-0.9027,0.3900
858768,-0.1578,-0.8822,0.3883
858791,-0.1423,-0.8656,0.3862
858815,-0.1348,-0.8589,0.3854
858838,-0.1273,-0.8533,0.3848
858860,-0.1130,-0.8455,0.3845
858877,-0.1060,-0.8434,0.3851
858895,-0.0991,-0.8424,0.3864
858919,-0.0924,-0.8427,0.3883
858970,-0.0731,-0.8492,0.3975
858992,-0.0615,-0.8580,0.4053
859009,-0.0564,-0.8633,0.4092
859033,-0.0516,-0.8689,0.4132
859056,-0.0436,-0.8802,0.4208
859073,-0.0402,-0.8855,0.4244
859095,-0.0372,-0.8904,0.4280
859118,-0.0347,-0.8947,0.4313
859135,-0.0326,-0.8982,0.4343
859153,-0.0308,-0.9009,0.4371
859175,-0.0282,-0.9041,0.4414
859237,-0.0267,-0.9028,0.4441
859262,-0.0270,-0.9016,0.4435
859313,-0.0291,-0.8970,0.4397
859341,-0.0311,-0.8937,0.4362
859374,-0.0334,-0.8905,0.4326
859397,-0.0347,-0.8890,0.4310
859414,-0.0359,-0.8877,0.4294
859436,-0.0370,-0.8865,0.4281
859458,-0.0391,-0.8846,0.4255
859475,-0.0400,-0.8840,0.4244
859497,-0.0408,-0.8837,0.4235
859519,-0.0415,-0.8834,0.4226
859543,-0.0425,-0.8837,0.4213
859561,-0.0427,-0.8842,0.4208
859583,-0.0428,-0.8846,0.4203
859627,-0.0431,-0.8868,0.4193
859651,-0.0432,-0.8877,0.4189
859668,-0.0432,-0.8884,0.4187
859690,-0.0437,-0.8900,0.4182
859712,-0.0441,-0.8906,0.4180
859734,-0.0444,-0.8911,0.4177
859758,-0.0455,-0.8918,0.4172
859779,-0.0461,-0.8921,0.4171
859823,-0.0483,-0.8923,0.4166
859846,-0.0491,-0.8923,0.4165
859863,-0.0498,-0.8922,0.4163
859885,-0.0511,-0.8921,0.4161
859907,-0.0515,-0.8921,0.4161
859924,-0.0519,-0.8921,0.4161
859955,-0.0521,-0.8922,0.4161
859978,-0.0521,-0.8922,0.4163
860010,-0.0518,-0.8923,0.4163
860032,-0.0514,-0.8923,0.4164
860049,-0.0509,-0.8922,0.4164
860071,-0.0497,-0.8916,0.4167
860094,-0.0488,-0.8909,0.4170
860111,-0.0479,-0.8899,0.4172
860133,-0.0455,-0.8870,0.4180
860155,-0.0442,-0.8849,0.4185
860212,-0.0391,-0.8761,0.4213
860237,-0.0349,-0.8679,0.4248
860261,-0.0328,-0.8633,0.4274
860284,-0.0284,-0.8538,0.4338
860307,-0.0260,-0.8492,0.4380
860330,-0.0236,-0.8450,0.4429
860352,-0.0182,-0.8378,0.4548
860369,-0.0153,-0.8352,0.4619
860386,-0.0122,-0.8335,0.4695
860409,-0.0090,-0.8328,0.4775
860454,0.0007,-0.8368,0.5027
860477,0.0040,-0.8403,0.5109
860500,0.0107,-0.8495,0.5261
860523,0.0142,-0.8547,0.5330
860545,0.0177,-0.8602,0.5391
860568,0.0248,-0.8707,0.5486
860587,0.0284,-0.8754,0.5520
860612,0.0320,-0.8795,0.5543
860632,0.0392,-0.8856,0.5563
860662,0.0426,-0.8885,0.5547
860684,0.0492,-0.8888,0.5527
860708,0.0521,-0.8882,0.5502
860730,0.0565,-0.8854,0.5430
860752,0.0576,-0.8832,0.5383
860775,0.0577,-0.8807,0.5330
860792,0.0570,-0.8782,0.5270
860814,0.0524,-0.8733,0.5132
860872,0.0372,-0.8691,0.4873
860893,0.0297,-0.8691,0.4772
860913,0.0110,-0.8713,0.4545
860937,-0.0001,-0.8737,0.4425
860959,-0.0121,-0.8767,0.4302
860979,-0.0374,-0.8846,0.4065
860996,-0.0502,-0.8894,0.3955
861017,-0.0626,-0.8944,0.3855
861057,-0.0862,-0.9047,0.3685
861080,-0.1068,-0.9139,0.3560
861097,-0.1160,-0.9180,0.3511
861120,-0.1243,-0.9213,0.3472
861142,-0.1316,-0.9237,0.3441
861159,-0.1382,-0.9254,0.3417
861196,-0.1530,-0.9244,0.3379
861214,-0.1562,-0.9222,0.3374
861261,-0.1603,-0.9126,0.3378
861284,-0.1597,-0.9093,0.3385
861307,-0.1580,-0.9064,0.3397
861329,-0.1510,-0.9020,0.3446
861346,-0.1456,-0.9003,0.3484
861369,-0.1390,-0.8988,0.3534
861391,-0.1312,-0.8975,0.3594
861431,-0.1038,-0.8928,0.3820
861454,-0.0940,-0.8912,0.3904
861471,-0.0845,-0.8898,0.3990
861502,-0.0668,-0.8871,0.4160
861524,-0.0590,-0.8859,0.4241
861541,-0.0521,-0.8849,0.4318
861563,-0.0414,-0.8827,0.4456
861586,-0.0377,-0.8816,0.4517
861603,-0.0349,-0.8804,0.4572
861620,-0.0332,-0.8793,0.4620
861640,-0.0323,-0.8782,0.4663
861683,-0.0348,-0.8751,0.4750
861704,-0.0370,-0.8743,0.4766
861728,-0.0426,-0.8727,0.4777
861779,-0.0521,-0.8705,0.4752
861803,-0.0551,-0.8699,0.4738
861821,-0.0576,-0.8691,0.4718
861839,-0.0599,-0.8685,0.4697
861861,-0.0632,-0.8676,0.4651
861898,-0.0649,-0.8672,0.4603
861921,-0.0652,-0.8673,0.4580
861945,-0.0647,-0.8679,0.4540
861968,-0.0640,-0.8685,0.4523
861990,-0.0620,-0.8699,0.4497
862007,-0.0608,-0.8707,0.4489
862031,-0.0597,-0.8716,0.4481
862053,-0.0585,-0.8724,0.4476
862090,-0.0554,-0.8748,0.4473
862114,-0.0547,-0.8755,0.4474
862135,-0.0540,-0.8760,0.4476
862157,-0.0531,-0.8767,0.4480
862180,-0.0529,-0.8770,0.4481
862204,-0.0527,-0.8771,0.4481
862226,-0.0530,-0.8772,0.4482
862243,-0.0533,-0.8772,0.4481
862296,-0.0549,-0.8770,0.4480
862321,-0.0565,-0.8767,0.4480
862343,-0.0574,-0.8766,0.4480
862366,-0.0583,-0.8765,0.4480
862383,-0.0593,-0.8762,0.4479
862420,-0.0627,-0.8749,0.4478
862437,-0.0640,-0.8743,0.4476
862468,-0.0652,-0.8735,0.4475
862491,-0.0676,-0.8722,0.4474
862508,-0.0687,-0.8715,0.4474
862531,-0.0698,-0.8708,0.4475
862552,-0.0709,-0.8704,0.4478
862576,-0.0726,-0.8696,0.4489
862599,-0.0734,-0.8695,0.4496
862620,-0.0743,-0.8696,0.4518
862646,-0.0746,-0.8699,0.4532
862667,-0.0745,-0.8702,0.4547
862687,-0.0735,-0.8715,0.4581
862724,-0.0714,-0.8730,0.4617
862756,-0.0682,-0.8746,0.4651
862780,-0.0663,-0.8754,0.4667
862802,-0.0618,-0.8768,0.4695
862826,-0.0592,-0.8774,0.4706
862851,-0.0540,-0.8784,0.4724
862873,-0.0513,-0.8788,0.4730
862910,-0.0461,-0.8793,0.4739
862928,-0.0437,-0.8794,0.4740
862955,-0.0392,-0.8794,0.4741
862976,-0.0372,-0.8793,0.4740
862998,-0.0355,-0.8790,0.4738
863015,-0.0339,-0.8788,0.4731
863053,-0.0308,-0.8774,0.4696
863099,-0.0299,-0.8757,0.4636
863122,-0.0303,-0.8752,0.4613
863139,-0.0309,-0.8746,0.4590
863162,-0.0317,-0.8740,0.4565
863184,-0.0344,-0.8728,0.4518
863203,-0.0361,-0.8722,0.4497
863226,-0.0381,-0.8713,0.4480
863247,-0.0402,-0.8706,0.4465
863305,-0.0490,-0.8678,0.4441
863328,-0.0508,-0.8672,0.4442
863359,-0.0535,-0.8658,0.4456
863382,-0.0549,-0.8646,0.4481
863399,-0.0553,-0.8643,0.4500
863421,-0.0555,-0.8640,0.4520
863444,-0.0557,-0.8640,0.4543
863461,-0.0555,-0.8641,0.4567
863478,-0.0554,-0.8646,0.4592
863500,-0.0548,-0.8661,0.4640
863537,-0.0536,-0.8684,0.4681
863560,-0.0527,-0.8696,0.4698
863583,-0.0509,-0.8722,0.4724
863606,-0.0498,-0.8733,0.4733
863627,-0.0487,-0.8744,0.4738
863665,-0.0453,-0.8770,0.4740
863682,-0.0443,-0.8776,0.4738
863702,-0.0433,-0.8779,0.4733
863733,-0.0415,-0.8783,0.4719
863755,-0.0408,-0.8782,0.4711
863779,-0.0396,-0.8778,0.4691
863801,-0.0391,-0.8774,0.4681
863824,-0.0386,-0.8770,0.4670
863841,-0.0382,-0.8765,0.4659
863863,-0.0376,-0.8754,0.4639
863880,-0.0374,-0.8749,0.4629
863924,-0.0370,-0.8737,0.4609
863947,-0.0367,-0.8724,0.4592
863971,-0.0366,-0.8717,0.4585
863989,-0.0366,-0.8711,0.4580
864011,-0.0365,-0.8700,0.4573
864033,-0.0365,-0.8696,0.4570
864050,-0.0365,-0.8693,0.4569
864073,-0.0365,-0.8691,0.4569
864096,-0.0365,-0.8694,0.4570
864127,-0.0366,-0.8700,0.4574
864149,-0.0367,-0.8705,0.4578
864166,-0.0367,-0.8710,0.4580
864189,-0.0369,-0.8715,0.4585
864209,-0.0369,-0.8719,0.4590
864233,-0.0371,-0.8727,0.4600
864271,-0.0372,-0.8733,0.4609
864290,-0.0374,-0.8734,0.4613
864339,-0.0378,-0.8738,0.4622
864364,-0.0381,-0.8738,0.4624
864387,-0.0383,-0.8739,0.4623
864409,-0.0386,-0.8738,0.4622
864426,-0.0388,-0.8737,0.4619
864448,-0.0389,-0.8735,0.4617
864471,-0.0391,-0.8733,0.4614
864488,-0.0392,-0.8730,0.4611
864505,-0.0393,-0.8726,0.4608
864527,-0.0397,-0.8716,0.4603
864572,-0.0400,-0.8706,0.4603
864596,-0.0404,-0.8698,0.4608
864613,-0.0406,-0.8694,0.4613
864634,-0.0408,-0.8690,0.4620
864656,-0.0410,-0.8688,0.4629
864677,-0.0411,-0.8683,0.4650
864702,-0.0410,-0.8680,0.4662
864724,-0.0408,-0.8677,0.4689
864761,-0.0400,-0.8671,0.4718
864784,-0.0397,-0.8668,0.4731
864808,-0.0386,-0.8660,0.4761
864830,-0.0380,-0.8655,0.4774
864853,-0.0374,-0.8649,0.4788
864870,-0.0367,-0.8643,0.4800
864897,-0.0356,-0.8629,0.4823
864915,-0.0352,-0.8623,0.4834
864961,-0.0338,-0.8604,0.4861
864985,-0.0334,-0.8596,0.4868
865005,-0.0331,-0.8590,0.4874
865027,-0.0323,-0.8579,0.4883
865050,-0.0320,-0.8574,0.4886
865067,-0.0316,-0.8569,0.4889
865089,-0.0310,-0.8562,0.4891
865110,-0.0306,-0.8558,0.4893
865147,-0.0300,-0.8551,0.4896
865170,-0.0298,-0.8547,0.4899
865209,-0.0293,-0.8535,0.4910
865232,-0.0292,-0.8530,0.4916
865256,-0.0293,-0.8522,0.4929
865279,-0.0294,-0.8517,0.4937
865301,-0.0297,-0.8512,0.4946
865358,-0.0314,-0.8492,0.4987
865385,-0.0319,-0.8488,0.4998
865407,-0.0328,-0.8477,0.5020
865430,-0.0334,-0.8472,0.5032
865447,-0.0339,-0.8466,0.5044
865469,-0.0345,-0.8461,0.5056
865507,-0.0363,-0.8441,0.5093
865526,-0.0367,-0.8435,0.5106
865549,-0.0372,-0.8427,0.5120
865571,-0.0381,-0.8409,0.5148
865602,-0.0383,-0.8391,0.5176
865624,-0.0388,-0.8381,0.5190
865647,-0.0388,-0.8372,0.5205
865669,-0.0388,-0.8362,0.5220
865689,-0.0385,-0.8345,0.5248
865713,-0.0382,-0.8336,0.5262
865730,-0.0377,-0.8329,0.5277
865752,-0.0366,-0.8317,0.5306
865796,-0.0352,-0.8307,0.5334
865820,-0.0333,-0.8298,0.5361
865837,-0.0325,-0.8295,0.5375
865860,-0.0315,-0.8291,0.5387
865882,-0.0305,-0.8287,0.5399
865899,-0.0295,-0.8285,0.5410
865921,-0.0278,-0.8278,0.5432
865939,-0.0270,-0.8274,0.5442
865997,-0.0251,-0.8262,0.5470
866020,-0.0243,-0.8252,0.5486
866037,-0.0240,-0.8247,0.5494
866060,-0.0238,-0.8242,0.5503
866082,-0.0237,-0.8236,0.5511
866099,-0.0236,-0.8229,0.5521
866122,-0.0237,-0.8215,0.5543
866146,-0.0238,-0.8207,0.5555
866176,-0.0242,-0.8192,0.5582
866198,-0.0244,-0.8184,0.5596
866222,-0.0251,-0.8169,0.5627
866245,-0.0255,-0.8162,0.5645
866267,-0.0264,-0.8147,0.5679
866284,-0.0269,-0.8140,0.5696
866307,-0.0273,-0.8131,0.5712
866329,-0.0278,-0.8124,0.5729
866386,-0.0293,-0.8086,0.5786
866430,-0.0297,-0.8065,0.5808
866453,-0.0298,-0.8044,0.5825
866480,-0.0298,-0.8035,0.5833
866502,-0.0297,-0.8015,0.5842
866525,-0.0294,-0.8005,0.5846
866565,-0.0287,-0.7983,0.5853
866587,-0.0283,-0.7977,0.5854
866604,-0.0280,-0.7972,0.5856
866625,-0.0276,-0.7970,0.5856
866645,-0.0273,-0.7968,0.5856
866668,-0.0267,-0.7965,0.5856
866691,-0.0265,-0.7966,0.5856
866728,-0.0260,-0.7969,0.5854
866748,-0.0259,-0.7975,0.5853
866771,-0.0259,-0.7979,0.5853
866793,-0.0260,-0.7983,0.5852
866823,-0.0265,-0.7993,0.5851
866846,-0.0272,-0.8003,0.5850
866863,-0.0278,-0.8008,0.5850
866885,-0.0283,-0.8011,0.5848
866908,-0.0291,-0.8016,0.5847
866925,-0.0298,-0.8020,0.5845
866949,-0.0315,-0.8027,0.5837
866974,-0.0323,-0.8031,0.5834
867014,-0.0353,-0.8038,0.5818
867038,-0.0363,-0.8041,0.5812
867056,-0.0372,-0.8042,0.5807
867078,-0.0392,-0.8043,0.5797
867100,-0.0402,-0.8044,0.5792
867117,-0.0410,-0.8044,0.5787
867140,-0.0419,-0.8046,0.5784
867157,-0.0426,-0.8047,0.5780
867200,-0.0444,-0.8053,0.5767
867223,-0.0449,-0.8055,0.5760
867240,-0.0453,-0.8058,0.5754
867262,-0.0460,-0.8064,0.5741
867287,-0.0461,-0.8068,0.5732
867309,-0.0463,-0.8074,0.5724
867340,-0.0460,-0.8091,0.5704
867359,-0.0453,-0.8118,0.5685
867406,-0.0439,-0.8151,0.5667
867431,-0.0425,-0.8185,0.5651
867454,-0.0419,-0.8201,0.5643
867476,-0.0408,-0.8229,0.5631
867493,-0.0403,-0.8239,0.5624
867515,-0.0399,-0.8247,0.5616
867538,-0.0396,-0.8252,0.5609
867558,-0.0388,-0.8253,0.5591
867576,-0.0386,-0.8251,0.5579
867598,-0.0383,-0.8245,0.5566
867636,-0.0383,-0.8226,0.5538
867659,-0.0388,-0.8203,0.5507
867678,-0.0394,-0.8192,0.5490
867702,-0.0399,-0.8181,0.5474
867724,-0.0413,-0.8163,0.5443
867748,-0.0419,-0.8157,0.5428
867773,-0.0425,-0.8153,0.5414
867795,-0.0436,-0.8154,0.5387
867832,-0.0446,-0.8164,0.5364
867855,-0.0449,-0.8173,0.5354
867879,-0.0457,-0.8193,0.5338
867902,-0.0459,-0.8206,0.5332
867924,-0.0463,-0.8230,0.5325
867941,-0.0465,-0.8242,0.5321
867965,-0.0468,-0.8254,0.5320
867983,-0.0469,-0.8264,0.5317
868027,-0.0475,-0.8289,0.5316
868050,-0.0476,-0.8293,0.5315
868074,-0.0477,-0.8300,0.5315
868097,-0.0477,-0.8300,0.5314
868119,-0.0477,-0.8298,0.5314
868136,-0.0476,-0.8296,0.5312
868157,-0.0472,-0.8289,0.5311
868182,-0.0469,-0.8285,0.5311
868219,-0.0461,-0.8274,0.5312
868242,-0.0450,-0.8263,0.5317
868266,-0.0443,-0.8257,0.5321
868284,-0.0436,-0.8252,0.5326
868306,-0.0417,-0.8241,0.5338
868329,-0.0408,-0.8237,0.5345
868346,-0.0397,-0.8232,0.5354
868368,-0.0386,-0.8230,0.5363
868386,-0.0372,-0.8226,0.5372
868440,-0.0315,-0.8224,0.5415
868465,-0.0299,-0.8226,0.5426
868487,-0.0267,-0.8230,0.5449
868509,-0.0250,-0.8232,0.5460
868526,-0.0233,-0.8235,0.5470
868549,-0.0217,-0.8236,0.5480
868572,-0.0186,-0.8237,0.5497
868615,-0.0154,-0.8235,0.5511
868639,-0.0123,-0.8229,0.5522
868662,-0.0109,-0.8224,0.5527
868683,-0.0093,-0.8218,0.5531
868703,-0.0062,-0.8204,0.5537
868727,-0.0048,-0.8197,0.5540
868771,-0.0009,-0.8174,0.5551
868795,0.0002,-0.8167,0.5555
868813,0.0011,-0.8159,0.5560
868835,0.0022,-0.8147,0.5574
868872,0.0026,-0.8135,0.5592
868893,0.0024,-0.8130,0.5602
868918,0.0021,-0.8121,0.5627
868940,0.0017,-0.8118,0.5641
868963,0.0013,-0.8114,0.5656
868990,0.0004,-0.8109,0.5686
869008,-0.0001,-0.8108,0.5701
869031,-0.0007,-0.8107,0.5715
869063,-0.0018,-0.8110,0.5742
869086,-0.0032,-0.8119,0.5763
869103,-0.0039,-0.8125,0.5770
869126,-0.0048,-0.8134,0.5775
