timestamp,acc_x,acc_y,acc_z
2870438,0.1482,-0.8004,-0.5974
2870545,0.1484,-0.7996,-0.5991
2870555,0.1482,-0.7996,-0.5983
2870571,0.1476,-0.7994,-0.5963
2870589,0.1470,-0.7994,-0.5940
2870604,0.1465,-0.7994,-0.5919
2870620,0.1461,-0.7996,-0.5900
2870636,0.1459,-0.7996,-0.5886
2870653,0.1460,-0.7996,-0.5879
2870669,0.1461,-0.7996,-0.5878
2870703,0.1467,-0.7993,-0.5898
2870719,0.1471,-0.7992,-0.5917
2870737,0.1476,-0.7991,-0.5936
2870774,0.1490,-0.7991,-0.5968
2870790,0.1499,-0.7996,-0.5967
2870806,0.1508,-0.8003,-0.5956
2870816,0.1514,-0.8009,-0.5947
2870832,0.1527,-0.8025,-0.5922
2870848,0.1544,-0.8047,-0.5885
2870858,0.1555,-0.8062,-0.5863
2870874,0.1583,-0.8094,-0.5812
2870901,0.1653,-0.8168,-0.5721
2870917,0.1726,-0.8248,-0.5657
2870933,0.1821,-0.8370,-0.5588
2870949,0.1930,-0.8535,-0.5518
2870959,0.1982,-0.8629,-0.5482
2870975,0.2075,-0.8817,-0.5406
2870991,0.2134,-0.8979,-0.5322
2871007,0.2148,-0.9087,-0.5228
2871025,0.2115,-0.9124,-0.5131
2871041,0.2040,-0.9092,-0.5037
2871079,0.1720,-0.8835,-0.4897
2871106,0.1487,-0.8680,-0.4913
2871122,0.1331,-0.8616,-0.4961
2871138,0.1183,-0.8599,-0.5023
2871156,0.1049,-0.8636,-0.5082
2871172,0.0929,-0.8722,-0.5116
2871188,0.0824,-0.8837,-0.5105
2871204,0.0728,-0.8955,-0.5032
2871222,0.0575,-0.9093,-0.4779
2871238,0.0518,-0.9119,-0.4507
2871254,0.0392,-0.9133,-0.4342
2871264,0.0251,-0.9105,-0.3960
2871280,0.0101,-0.9048,-0.3521
2871307,-0.0126,-0.8958,-0.2804
2871323,-0.0269,-0.8932,-0.2327
2871339,-0.0393,-0.8955,-0.1881
2871357,-0.0490,-0.9032,-0.1490
2871385,-0.0564,-0.9227,-0.1031
2871401,-0.0555,-0.9390,-0.0809
2871419,-0.0452,-0.9645,-0.0558
2871434,-0.0394,-0.9728,-0.0485
2871449,-0.0247,-0.9883,-0.0332
2871468,0.0044,-1.0078,-0.0052
2871519,0.0787,-1.0243,0.0831
2871535,0.1046,-1.0206,0.1227
2871556,0.1288,-1.0118,0.1666
2871573,0.1503,-0.9978,0.2145
2871581,0.1598,-0.9891,0.2395
2871596,0.1765,-0.9688,0.2914
2871614,0.1904,-0.9457,0.3447
2871629,0.2026,-0.9218,0.3983
2871644,0.2142,-0.8989,0.4513
2871660,0.2261,-0.8799,0.5023
2871696,0.2506,-0.8646,0.6132
2871735,0.2791,-0.8911,0.6642
2871751,0.2899,-0.9138,0.6656
2871769,0.3014,-0.9391,0.6440
2871785,0.3131,-0.9637,0.5950
2871801,0.3239,-0.9854,0.5162
2871817,0.3320,-1.0021,0.4084
2871835,0.3358,-1.0123,0.1998
2871851,0.3340,-1.0143,0.1212
2871867,0.3262,-1.0076,-0.0437
2871877,0.3127,-0.9935,-0.2108
2871892,0.3043,-0.9846,-0.2922
2871919,0.2617,-0.9465,-0.5820
2871935,0.2386,-0.9290,-0.6962
2871952,0.2169,-0.9121,-0.7860
2871970,0.1980,-0.8953,-0.8503
2871998,0.1754,-0.8702,-0.8976
2872014,0.1642,-0.8552,-0.8965
2872032,0.1506,-0.8391,-0.8501
2872047,0.1462,-0.8359,-0.8243
2872062,0.1359,-0.8333,-0.7610
2872080,0.1226,-0.8339,-0.6555
2872115,0.0818,-0.8381,-0.4946
2872131,0.0668,-0.8405,-0.4281
2872147,0.0553,-0.8452,-0.3717
2872165,0.0483,-0.8535,-0.3262
2872181,0.0463,-0.8652,-0.2913
2872197,0.0482,-0.8798,-0.2657
2872213,0.0526,-0.8956,-0.2478
2872231,0.0579,-0.9116,-0.2360
2872247,0.0631,-0.9269,-0.2286
2872263,0.0679,-0.9408,-0.2252
2872306,0.0789,-0.9698,-0.2295
2872344,0.0933,-0.9900,-0.2484
2872360,0.1000,-0.9949,-0.2589
2872378,0.1064,-0.9976,-0.2701
2872394,0.1122,-0.9982,-0.2814
2872410,0.1166,-0.9967,-0.2914
2872426,0.1195,-0.9938,-0.2994
2872455,0.1211,-0.9871,-0.3066
2872471,0.1205,-0.9816,-0.3077
2872490,0.1177,-0.9723,-0.3038
2872544,0.1072,-0.9545,-0.2808
2872560,0.1030,-0.9501,-0.2708
2872570,0.1010,-0.9481,-0.2657
2872606,0.0908,-0.9418,-0.2440
2872619,0.0890,-0.9409,-0.2408
2872632,0.0856,-0.9397,-0.2357
2872648,0.0825,-0.9386,-0.2324
2872663,0.0798,-0.9380,-0.2307
2872677,0.0785,-0.9377,-0.2303
2872713,0.0739,-0.9380,-0.2325
2872729,0.0728,-0.9385,-0.2346
2872744,0.0719,-0.9390,-0.2372
2872762,0.0714,-0.9393,-0.2400
2872778,0.0712,-0.9396,-0.2432
2872794,0.0712,-0.9397,-0.2463
2872810,0.0713,-0.9397,-0.2495
2872828,0.0714,-0.9397,-0.2528
2872844,0.0718,-0.9398,-0.2563
2872860,0.0725,-0.9402,-0.2604
2872876,0.0737,-0.9409,-0.2649
2872920,0.0789,-0.9448,-0.2788
2872931,0.0813,-0.9469,-0.2850
2872947,0.0826,-0.9480,-0.2917
2872986,0.0900,-0.9536,-0.3075
2873000,0.0930,-0.9563,-0.3173
2873018,0.0958,-0.9600,-0.3289
2873034,0.0980,-0.9650,-0.3429
2873050,0.0992,-0.9708,-0.3599
2873066,0.0992,-0.9768,-0.3794
2873084,0.0974,-0.9817,-0.4005
2873100,0.0940,-0.9849,-0.4219
2873116,0.0896,-0.9854,-0.4420
2873134,0.0851,-0.9827,-0.4592
2873168,0.0791,-0.9613,-0.4805
2873184,0.0792,-0.9550,-0.4773
2873225,0.0853,-0.9114,-0.4413
2873235,0.0900,-0.9042,-0.4303
2873251,0.0950,-0.8903,-0.4060
2873267,0.0995,-0.8779,-0.3795
2873283,0.1028,-0.8679,-0.3521
2873300,0.1047,-0.8611,-0.3248
2873316,0.1052,-0.8579,-0.2983
2873331,0.1050,-0.8579,-0.2854
2873341,0.1039,-0.8616,-0.2599
2873357,0.1021,-0.8706,-0.2346
2873383,0.0991,-0.8943,-0.1962
2873399,0.0978,-0.9150,-0.1698
2873415,0.0970,-0.9374,-0.1428
2873433,0.0967,-0.9597,-0.1150
2873449,0.0966,-0.9807,-0.0862
2873465,0.0967,-0.9991,-0.0573
2873481,0.0975,-1.0142,-0.0287
2873499,0.0992,-1.0254,-0.0012
2873534,0.1060,-1.0366,0.0499
2873545,0.1108,-1.0372,0.0737
2873596,0.1251,-1.0250,0.1379
2873611,0.1271,-1.0171,0.1555
2873629,0.1268,-1.0077,0.1702
2873645,0.1245,-0.9979,0.1821
2873661,0.1200,-0.9888,0.1915
2873677,0.1138,-0.9810,0.1990
2873698,0.1060,-0.9746,0.2054
2873714,0.0972,-0.9700,0.2115
2873730,0.0880,-0.9669,0.2180
2873748,0.0790,-0.9648,0.2255
2873775,0.0621,-0.9586,0.2438
2873791,0.0535,-0.9526,0.2550
2873807,0.0443,-0.9445,0.2675
2873835,0.0288,-0.9290,0.2869
2873845,0.0233,-0.9232,0.2928
2873861,0.0126,-0.9115,0.3031
2873877,0.0028,-0.9006,0.3102
2873893,-0.0052,-0.8921,0.3138
2873911,-0.0111,-0.8866,0.3142
2873927,-0.0148,-0.8844,0.3121
2873943,-0.0167,-0.8851,0.3083
2873953,-0.0168,-0.8883,0.3037
2873969,-0.0164,-0.8907,0.2990
2874007,-0.0092,-0.9067,0.2920
2874022,-0.0045,-0.9125,0.2917
2874040,0.0004,-0.9166,0.2953
2874056,0.0048,-0.9185,0.3040
2874072,0.0083,-0.9177,0.3186
2874088,0.0112,-0.9141,0.3400
2874105,0.0135,-0.9073,0.3683
2874141,0.0156,-0.8744,0.4702
2874159,0.0144,-0.8544,0.5221
2874186,0.0114,-0.8187,0.6066
2874202,0.0094,-0.7937,0.6635
2874218,0.0087,-0.7709,0.7174
2874236,0.0096,-0.7524,0.7649
2874252,0.0132,-0.7401,0.8027
2874268,0.0197,-0.7351,0.8279
2874284,0.0286,-0.7385,0.8379
2874302,0.0394,-0.7510,0.8301
2874318,0.0520,-0.7723,0.8005
2874334,0.0667,-0.8009,0.7460
2874350,0.0834,-0.8346,0.6647
2874360,0.0923,-0.8527,0.6140
2874387,0.1307,-0.9310,0.3511
2874402,0.1416,-0.9518,0.2719
2874418,0.1654,-0.9933,0.1013
2874446,0.2140,-1.0663,-0.2554
2874467,0.2327,-1.0912,-0.4167
2874476,0.2393,-1.1055,-0.5511
2874492,0.2467,-1.1084,-0.6057
2874508,0.2466,-1.1063,-0.6869
2874524,0.2400,-1.0951,-0.7303
2874538,0.2284,-1.0763,-0.7378
2874554,0.2137,-1.0525,-0.7141
2874565,0.2059,-1.0396,-0.6927
2874616,0.1617,-0.9559,-0.4532
2874630,0.1587,-0.9476,-0.4163
2874648,0.1547,-0.9310,-0.3141
2874664,0.1549,-0.9281,-0.2559
2874680,0.1565,-0.9254,-0.2302
2874696,0.1588,-0.9260,-0.1858
2874714,0.1614,-0.9307,-0.1351
2874750,0.1615,-0.9412,-0.0925
2874768,0.1600,-0.9475,-0.0790
2874797,0.1558,-0.9618,-0.0608
2874813,0.1541,-0.9695,-0.0546
2874829,0.1532,-0.9773,-0.0497
2874839,0.1531,-0.9812,-0.0476
2874855,0.1541,-0.9886,-0.0442
2874871,0.1560,-0.9954,-0.0415
2874887,0.1588,-1.0010,-0.0392
2874905,0.1616,-1.0052,-0.0372
2874921,0.1643,-1.0077,-0.0355
2874937,0.1666,-1.0085,-0.0345
2874953,0.1682,-1.0078,-0.0344
2875010,0.1655,-0.9935,-0.0439
2875026,0.1622,-0.9872,-0.0486
2875067,0.1525,-0.9738,-0.0619
2875083,0.1492,-0.9707,-0.0676
2875101,0.1466,-0.9691,-0.0736
2875117,0.1449,-0.9690,-0.0796
2875132,0.1440,-0.9700,-0.0856
2875148,0.1440,-0.9719,-0.0913
2875166,0.1447,-0.9746,-0.0969
2875176,0.1449,-0.9760,-0.0996
2875192,0.1455,-0.9789,-0.1047
2875208,0.1459,-0.9818,-0.1099
2875224,0.1461,-0.9845,-0.1161
2875254,0.1487,-0.9900,-0.1370
2875270,0.1517,-0.9933,-0.1534
2875285,0.1537,-0.9950,-0.1632
2875295,0.1580,-0.9987,-0.1855
2875311,0.1620,-1.0018,-0.2106
2875326,0.1635,-1.0029,-0.2238
2875354,0.1654,-1.0029,-0.2769
2875364,0.1648,-1.0015,-0.2894
2875382,0.1626,-0.9966,-0.3121
2875398,0.1588,-0.9900,-0.3300
2875414,0.1530,-0.9823,-0.3406
2875451,0.1270,-0.9622,-0.3247
2875467,0.1136,-0.9542,-0.3009
2875483,0.1008,-0.9468,-0.2695
2875493,0.0952,-0.9432,-0.2517
2875509,0.0865,-0.9374,-0.2134
2875525,0.0822,-0.9335,-0.1732
2875541,0.0823,-0.9323,-0.1326
2875556,0.0858,-0.9336,-0.0920
2875566,0.0885,-0.9353,-0.0720
2875585,0.0947,-0.9401,-0.0326
2875601,0.1012,-0.9463,0.0054
2875617,0.1073,-0.9532,0.0413
2875663,0.1208,-0.9803,0.1305
2875691,0.1245,-0.9958,0.1624
2875701,0.1252,-1.0005,0.1705
2875717,0.1261,-1.0076,0.1835
2875733,0.1261,-1.0109,0.1914
2875749,0.1249,-1.0100,0.1946
2875767,0.1224,-1.0051,0.1934
2875785,0.1178,-0.9923,0.1835
2875800,0.1165,-0.9873,0.1785
2875816,0.1145,-0.9773,0.1665
2875856,0.1147,-0.9614,0.1366
2875872,0.1163,-0.9613,0.1290
2875888,0.1183,-0.9651,0.1259
2875898,0.1191,-0.9683,0.1260
2875914,0.1204,-0.9761,0.1298
2875930,0.1206,-0.9845,0.1377
2875946,0.1194,-0.9915,0.1495
2875964,0.1165,-0.9954,0.1646
2875992,0.1046,-0.9890,0.2029
2876003,0.1005,-0.9840,0.2142
2876019,0.0906,-0.9697,0.2386
2876061,0.0607,-0.9120,0.3094
2876074,0.0500,-0.8849,0.3400
2876091,0.0427,-0.8593,0.3705
2876106,0.0402,-0.8372,0.4005
2876121,0.0435,-0.8202,0.4307
2876137,0.0527,-0.8096,0.4618
2876155,0.0677,-0.8059,0.4950
2876170,0.0880,-0.8092,0.5306
2876184,0.0997,-0.8134,0.5493
2876200,0.1254,-0.8259,0.5875
2876210,0.1523,-0.8438,0.6254
2876240,0.1909,-0.8784,0.6747
2876256,0.2124,-0.9047,0.6967
2876272,0.2290,-0.9308,0.7045
2876302,0.2434,-0.9736,0.6641
2876318,0.2406,-0.9891,0.6129
2876334,0.2335,-1.0022,0.5388
2876344,0.2294,-1.0082,0.4927
2876360,0.2218,-1.0197,0.3820
2876376,0.2158,-1.0302,0.2493
2876392,0.2115,-1.0380,0.1014
2876410,0.2080,-1.0402,-0.0524
2876420,0.2059,-1.0383,-0.1282
2876436,0.2004,-1.0276,-0.2719
2876452,0.1924,-1.0079,-0.3978
2876467,0.1827,-0.9816,-0.5005
2876507,0.1639,-0.9067,-0.6472
2876522,0.1621,-0.8812,-0.6646
2876546,0.1655,-0.8550,-0.6541
2876560,0.1683,-0.8500,-0.6427
2876575,0.1758,-0.8459,-0.6113
2876620,0.2070,-0.8761,-0.4828
2876669,0.2267,-0.9386,-0.3551
2876684,0.2271,-0.9485,-0.3367
2876694,0.2245,-0.9663,-0.3031
2876710,0.2181,-0.9805,-0.2739
2876726,0.2086,-0.9908,-0.2494
2876742,0.1969,-0.9977,-0.2289
2876760,0.1837,-1.0012,-0.2119
2876776,0.1700,-1.0020,-0.1980
2876792,0.1566,-1.0007,-0.1866
2876808,0.1447,-0.9982,-0.1775
2876826,0.1351,-0.9951,-0.1705
2876836,0.1313,-0.9935,-0.1678
2876852,0.1262,-0.9905,-0.1639
2876868,0.1240,-0.9877,-0.1611
2876897,0.1277,-0.9845,-0.1565
2876929,0.1362,-0.9847,-0.1511
2876945,0.1436,-0.9854,-0.1494
2876961,0.1512,-0.9857,-0.1459
2876971,0.1583,-0.9851,-0.1416
2876986,0.1614,-0.9844,-0.1394
2877002,0.1665,-0.9821,-0.1345
2877018,0.1703,-0.9785,-0.1296
2877036,0.1736,-0.9723,-0.1229
2877050,0.1742,-0.9701,-0.1212
2877066,0.1750,-0.9658,-0.1184
2877082,0.1753,-0.9620,-0.1168
2877097,0.1752,-0.9591,-0.1163
2877139,0.1740,-0.9572,-0.1187
2877155,0.1733,-0.9587,-0.1211
2877173,0.1727,-0.9609,-0.1249
2877209,0.1720,-0.9656,-0.1415
2877225,0.1716,-0.9658,-0.1500
2877235,0.1714,-0.9657,-0.1545
2877253,0.1705,-0.9651,-0.1636
2877269,0.1693,-0.9644,-0.1729
2877285,0.1677,-0.9640,-0.1826
2877322,0.1624,-0.9648,-0.2072
2877338,0.1609,-0.9655,-0.2159
2877354,0.1576,-0.9674,-0.2201
2877364,0.1542,-0.9709,-0.2285
2877380,0.1512,-0.9760,-0.2384
2877395,0.1501,-0.9788,-0.2445
2877411,0.1489,-0.9844,-0.2595
2877429,0.1493,-0.9904,-0.2906
2877444,0.1498,-0.9912,-0.3029
2877455,0.1506,-0.9908,-0.3290
2877471,0.1505,-0.9877,-0.3551
2877487,0.1488,-0.9817,-0.3783
2877547,0.1309,-0.9445,-0.4003
2877564,0.1235,-0.9326,-0.3834
2877580,0.1163,-0.9221,-0.3557
2877596,0.1097,-0.9136,-0.3186
2877609,0.1039,-0.9077,-0.2740
2877627,0.0985,-0.9048,-0.2245
2877642,0.0938,-0.9054,-0.1733
2877661,0.0901,-0.9097,-0.1240
2877676,0.0883,-0.9174,-0.0797
2877729,0.0951,-0.9530,0.0077
2877744,0.1019,-0.9656,0.0233
2877754,0.1061,-0.9713,0.0294
2877770,0.1154,-0.9812,0.0398
2877786,0.1251,-0.9888,0.0493
2877828,0.1483,-1.0010,0.0812
2877838,0.1560,-1.0049,0.0999
2877853,0.1594,-1.0066,0.1106
2877863,0.1652,-1.0094,0.1339
2877879,0.1698,-1.0115,0.1593
2877895,0.1733,-1.0128,0.1858
2877927,0.1763,-1.0129,0.2394
2877943,0.1760,-1.0122,0.2524
2877959,0.1744,-1.0100,0.2770
2877969,0.1715,-1.0067,0.2986
2877983,0.1696,-1.0049,0.3080
2877998,0.1653,-1.0007,0.3232
2878014,0.1605,-0.9957,0.3330
2878032,0.1554,-0.9896,0.3367
2878048,0.1504,-0.9819,0.3348
2878066,0.1451,-0.9657,0.3251
2878082,0.1392,-0.9587,0.3215
2878132,0.1089,-0.8917,0.3364
2878171,0.0925,-0.8492,0.3960
2878181,0.0891,-0.8303,0.4377
2878197,0.0892,-0.8145,0.4840
2878213,0.0939,-0.8081,0.5311
2878229,0.1052,-0.7993,0.5541
2878246,0.1342,-0.7998,0.6157
2878262,0.1461,-0.8044,0.6327
2878272,0.1714,-0.8204,0.6598
2878288,0.1958,-0.8446,0.6755
2878304,0.2168,-0.8748,0.6774
2878334,0.2368,-0.9250,0.6483
2878350,0.2407,-0.9576,0.6039
2878366,0.2373,-0.9860,0.5380
2878376,0.2332,-0.9977,0.4968
2878392,0.2214,-1.0143,0.3998
2878408,0.2062,-1.0211,0.2865
2878424,0.1887,-1.0187,0.1627
2878442,0.1702,-1.0088,-0.0270
2878470,0.1379,-0.9766,-0.2054
2878480,0.1323,-0.9674,-0.2594
2878496,0.1250,-0.9500,-0.3566
2878537,0.1309,-0.9240,-0.5287
2878546,0.1362,-0.9233,-0.5516
2878561,0.1511,-0.9264,-0.5879
2878577,0.1700,-0.9341,-0.6123
2878593,0.1906,-0.9448,-0.6250
2878608,0.2101,-0.9570,-0.6252
2878623,0.2267,-0.9692,-0.6128
2878633,0.2334,-0.9750,-0.6018
2878649,0.2429,-0.9849,-0.5712
2878664,0.2469,-0.9919,-0.5300
2878683,0.2456,-0.9961,-0.4805
2878737,0.2159,-0.9938,-0.2792
2878772,0.1761,-0.9868,-0.1776
2878782,0.1683,-0.9852,-0.1565
2878798,0.1537,-0.9825,-0.1208
2878814,0.1412,-0.9808,-0.0938
2878830,0.1315,-0.9802,-0.0751
2878848,0.1245,-0.9810,-0.0638
2878864,0.1202,-0.9825,-0.0587
2878880,0.1185,-0.9849,-0.0586
2878890,0.1184,-0.9861,-0.0599
2878906,0.1196,-0.9884,-0.0643
2878937,0.1248,-0.9908,-0.0762
2878952,0.1276,-0.9902,-0.0813
2878968,0.1298,-0.9879,-0.0848
2878981,0.1307,-0.9862,-0.0859
2878997,0.1320,-0.9819,-0.0869
2879013,0.1326,-0.9768,-0.0864
2879029,0.1327,-0.9712,-0.0847
2879039,0.1326,-0.9685,-0.0836
2879074,0.1317,-0.9572,-0.0775
2879095,0.1316,-0.9547,-0.0757
2879137,0.1328,-0.9547,-0.0745
2879153,0.1344,-0.9572,-0.0754
2879167,0.1365,-0.9608,-0.0771
2879177,0.1377,-0.9629,-0.0782
2879193,0.1403,-0.9675,-0.0806
2879209,0.1427,-0.9722,-0.0829
2879225,0.1447,-0.9766,-0.0851
2879242,0.1462,-0.9802,-0.0872
2879258,0.1471,-0.9832,-0.0892
2879274,0.1476,-0.9851,-0.0919
2879290,0.1481,-0.9866,-0.0957
2879300,0.1483,-0.9872,-0.0983
2879330,0.1503,-0.9888,-0.1145
2879346,0.1515,-0.9888,-0.1278
2879381,0.1548,-0.9862,-0.1694
2879391,0.1870,-0.9841,-0.1997
2879407,0.1582,-0.9832,-0.2489
2879423,0.1610,-0.9814,-0.2587
2879439,0.1639,-0.9801,-0.3060
2879457,0.1671,-0.9774,-0.3842
2879472,0.1676,-0.9761,-0.4106
2879488,0.1671,-0.9720,-0.4612
2879506,0.1621,-0.9623,-0.5231
2879542,0.1483,-0.9430,-0.5619
2879560,0.1399,-0.9324,-0.5583
2879568,0.1357,-0.9272,-0.5508
2879585,0.1282,-0.9176,-0.5244
2879601,0.1221,-0.9094,-0.4845
2879617,0.1178,-0.9037,-0.4332
2879632,0.1152,-0.9011,-0.3727
2879649,0.1140,-0.9021,-0.3057
2879691,0.1169,-0.9175,-0.1257
2879710,0.1230,-0.9312,-0.0199
2879756,0.1404,-0.9572,0.1418
2879771,0.1484,-0.9684,0.1998
2879781,0.1525,-0.9740,0.2272
2879797,0.1604,-0.9846,0.2778
2879813,0.1676,-0.9943,0.3223
2879829,0.1741,-1.0018,0.3596
2879847,0.1798,-1.0066,0.3890
2879863,0.1848,-1.0087,0.4099
2879879,0.1893,-1.0087,0.4227
2879895,0.1931,-1.0083,0.4277
2879935,0.1989,-1.0073,0.4075
2879951,0.1991,-1.0045,0.3861
2879986,0.1930,-0.9899,0.3253
2879996,0.1898,-0.9840,0.3075
2880012,0.1823,-0.9701,0.2708
2880028,0.1736,-0.9540,0.2351
2880044,0.1652,-0.9374,0.2034
2880064,0.1552,-0.9163,0.1699
2880080,0.1510,-0.9078,0.1605
2880096,0.1497,-0.9050,0.1625
2880114,0.1512,-0.9075,0.1754
2880156,0.1674,-0.9249,0.2460
2880172,0.1775,-0.9318,0.2848
2880188,0.1882,-0.9370,0.3268
2880198,0.1936,-0.9390,0.3483
2880214,0.2035,-0.9414,0.3907
2880230,0.2122,-0.9423,0.4299
2880246,0.2191,-0.9420,0.4634
2880264,0.2241,-0.9413,0.4879
2880292,0.2296,-0.9379,0.5012
2880308,0.2299,-0.9351,0.4873
2880318,0.2290,-0.9332,0.4753
2880348,0.2156,-0.9224,0.3988
2880364,0.2091,-0.9187,0.3484
2880380,0.1915,-0.9110,0.3212
2880395,0.1683,-0.9043,0.2622
2880411,0.1418,-0.9008,0.1957
2880427,0.1176,-0.9022,0.1188
2880443,0.1011,-0.9091,0.0297
2880453,0.0970,-0.9144,-0.0193
2880469,0.0981,-0.9275,-0.1228
2880485,0.1100,-0.9425,-0.2269
2880501,0.1292,-0.9581,-0.3221
2880552,0.2015,-0.9956,-0.5060
2880561,0.2230,-1.0007,-0.5127
2880595,0.2545,-0.9976,-0.5089
2880611,0.2637,-0.9902,-0.4972
2880624,0.2666,-0.9856,-0.4908
2880640,0.2692,-0.9750,-0.4790
2880656,0.2672,-0.9637,-0.4700
2880666,0.2646,-0.9581,-0.4667
2880682,0.2566,-0.9473,-0.4625
2880696,0.2456,-0.9370,-0.4608
2880712,0.2323,-0.9276,-0.4596
2880723,0.2250,-0.9233,-0.4585
2880769,0.1781,-0.9073,-0.4248
2880785,0.1642,-0.9078,-0.3998
2880795,0.1580,-0.9093,-0.3848
2880811,0.1477,-0.9148,-0.3505
2880827,0.1403,-0.9229,-0.3124
2880843,0.1354,-0.9325,-0.2729
2880861,0.1331,-0.9426,-0.2351
2880877,0.1329,-0.9526,-0.2010
2880905,0.1376,-0.9700,-0.1510
2880945,0.1483,-0.9835,-0.1265
2880961,0.1506,-0.9852,-0.1266
2880977,0.1553,-0.9877,-0.1283
2880987,0.1598,-0.9890,-0.1339
2881003,0.1639,-0.9893,-0.1414
2881018,0.1660,-0.9890,-0.1454
2881034,0.1697,-0.9880,-0.1536
2881052,0.1747,-0.9846,-0.1644
2881067,0.1760,-0.9832,-0.1674
2881083,0.1783,-0.9797,-0.1720
2881099,0.1801,-0.9762,-0.1747
2881117,0.1808,-0.9711,-0.1752
2881128,0.1805,-0.9695,-0.1746
2881144,0.1794,-0.9663,-0.1725
2881160,0.1774,-0.9633,-0.1697
2881212,0.1691,-0.9564,-0.1621
2881264,0.1644,-0.9586,-0.1638
2881274,0.1646,-0.9596,-0.1654
2881290,0.1654,-0.9617,-0.1703
2881304,0.1661,-0.9625,-0.1733
2881320,0.1680,-0.9635,-0.1810
2881330,0.1698,-0.9635,-0.1904
2881360,0.1721,-0.9617,-0.2091
2881376,0.1733,-0.9602,-0.2258
2881392,0.1746,-0.9591,-0.2469
2881402,0.1754,-0.9587,-0.2593
2881418,0.1771,-0.9581,-0.2864
2881434,0.1786,-0.9574,-0.3152
2881450,0.1791,-0.9559,-0.3438
2881468,0.1781,-0.9541,-0.3826
2881484,0.1764,-0.9518,-0.3942
2881500,0.1748,-0.9496,-0.4148
2881516,0.1738,-0.9474,-0.4310
2881544,0.1708,-0.9413,-0.4420
2881576,0.1571,-0.9330,-0.4176
2881590,0.1517,-0.9308,-0.4071
2881605,0.1400,-0.9265,-0.3843
2881615,0.1342,-0.9243,-0.3727
2881630,0.1232,-0.9200,-0.3510
2881645,0.1136,-0.9156,-0.3319
2881661,0.1050,-0.9113,-0.3154
2881679,0.0958,-0.9072,-0.3004
2881695,0.0861,-0.9037,-0.2856
2881711,0.0765,-0.9015,-0.2705
2881727,0.0686,-0.9017,-0.2544
2881742,0.0635,-0.9056,-0.2367
2881752,0.0621,-0.9093,-0.2269
2881763,0.0620,-0.9202,-0.2053
2881779,0.0634,-0.9358,-0.1807
2881795,0.0686,-0.9448,-0.1671
2881848,0.1086,-1.0100,-0.0570
2881876,0.1292,-1.0254,-0.0068
2881886,0.1426,-1.0298,0.0264
2881901,0.1492,-1.0306,0.0430
2881917,0.1615,-1.0305,0.0758
2881933,0.1729,-1.0288,0.1082
2881951,0.1875,-1.0242,0.1556
2881969,0.1952,-1.0195,0.1869
2881985,0.2009,-1.0135,0.2180
2882001,0.2042,-1.0067,0.2494
2882038,0.2059,-0.9930,0.3118
2882054,0.2061,-0.9867,0.3416
2882070,0.2070,-0.9801,0.3698
2882080,0.2078,-0.9766,0.3832
2882096,0.2098,-0.9690,0.4087
2882112,0.2120,-0.9612,0.4320
2882128,0.2136,-0.9540,0.4519
2882146,0.2146,-0.9480,0.4666
2882181,0.2172,-0.9354,0.4688
2882192,0.2180,-0.9324,0.4631
2882242,0.2208,-0.9130,0.4099
2882256,0.2189,-0.9084,0.3917
2882277,0.2155,-0.9055,0.3752
2882293,0.2111,-0.9042,0.3601
2882309,0.2065,-0.9049,0.3451
2882325,0.2015,-0.9086,0.3284
2882335,0.1990,-0.9117,0.3077
2882351,0.1938,-0.9203,0.2952
2882367,0.1896,-0.9315,0.2635
2882383,0.1864,-0.9438,0.2214
2882393,0.1842,-0.9557,0.1670
2882423,0.1812,-0.9681,0.0627
2882439,0.1781,-0.9719,-0.0199
2882455,0.1735,-0.9728,-0.1104
2882485,0.1616,-0.9666,-0.3051
2882501,0.1567,-0.9591,-0.4023
2882517,0.1533,-0.9485,-0.4941
2882527,0.1521,-0.9424,-0.5365
2882543,0.1500,-0.9296,-0.6117
2882571,0.1478,-0.9117,-0.6958
2882579,0.1473,-0.9067,-0.7156
2882595,0.1471,-0.8983,-0.7424
2882606,0.1479,-0.8922,-0.7533
2882621,0.1488,-0.8900,-0.7531
2882636,0.1509,-0.8873,-0.7421
2882684,0.1582,-0.8918,-0.6436
2882700,0.1602,-0.8965,-0.5969
2882718,0.1615,-0.9026,-0.5480
2882734,0.1624,-0.9099,-0.4987
2882750,0.1622,-0.9183,-0.4508
2882765,0.1610,-0.9274,-0.4054
2882804,0.1530,-0.9504,-0.3086
2882853,0.1367,-0.9738,-0.2310
2882868,0.1301,-0.9785,-0.2144
2882878,0.1267,-0.9801,-0.2076
2882894,0.1200,-0.9821,-0.1973
2882910,0.1136,-0.9819,-0.1904
2882926,0.1083,-0.9800,-0.1866
2882944,0.1042,-0.9764,-0.1851
2882960,0.1018,-0.9717,-0.1847
2882976,0.1007,-0.9664,-0.1843
2882992,0.1013,-0.9612,-0.1837
2883010,0.1036,-0.9563,-0.1824
2883024,0.1077,-0.9521,-0.1804
2883040,0.1129,-0.9492,-0.1781
2883056,0.1191,-0.9474,-0.1758
2883094,0.1326,-0.9469,-0.1720
2883128,0.1451,-0.9491,-0.1721
2883138,0.1506,-0.9504,-0.1742
2883154,0.1554,-0.9518,-0.1772
2883169,0.1575,-0.9524,-0.1790
2883185,0.1606,-0.9535,-0.1827
2883203,0.1628,-0.9551,-0.1874
2883221,0.1627,-0.9564,-0.1896
2883237,0.1614,-0.9580,-0.1910
2883253,0.1592,-0.9597,-0.1924
2883266,0.1578,-0.9606,-0.1931
2883308,0.1490,-0.9636,-0.2025
2883324,0.1451,-0.9646,-0.2108
2883345,0.1404,-0.9667,-0.2325
2883361,0.1388,-0.9684,-0.2557
2883377,0.1390,-0.9697,-0.2877
2883393,0.1412,-0.9700,-0.3291
2883403,0.1431,-0.9695,-0.3531
2883431,0.1499,-0.9629,-0.4667
2883441,0.1545,-0.9532,-0.4973
2883457,0.1578,-0.9390,-0.5576
2883486,0.1593,-0.9111,-0.6371
2883502,0.1586,-0.8915,-0.6763
2883518,0.1576,-0.8735,-0.7004
2883528,0.1572,-0.8657,-0.7059
2883545,0.1571,-0.8539,-0.7031
2883553,0.1573,-0.8502,-0.6946
2883568,0.1586,-0.8478,-0.6632
2883583,0.1605,-0.8519,-0.6150
2883593,0.1619,-0.8563,-0.5854
2883608,0.1654,-0.8688,-0.5184
2883623,0.1699,-0.8846,-0.4436
2883638,0.1749,-0.9027,-0.3643
2883648,0.1774,-0.9120,-0.3236
2883678,0.1848,-0.9464,-0.1603
2883691,0.1860,-0.9536,-0.1201
2883707,0.1877,-0.9664,-0.0410
2883735,0.1924,-0.9868,0.1096
2883745,0.1943,-0.9907,0.1453
2883761,0.1996,-0.9962,0.2139
2883776,0.2064,-0.9980,0.2787
2883792,0.2137,-0.9957,0.3400
2883810,0.2205,-0.9889,0.3977
2883826,0.2252,-0.9763,0.4531
2883842,0.2275,-0.9572,0.5078
2883853,0.2279,-0.9453,0.5347
2883907,0.2329,-0.8492,0.6869
2883920,0.2347,-0.8389,0.7003
2883931,0.2384,-0.8246,0.7184
2883946,0.2400,-0.8212,0.7225
2883962,0.2430,-0.8225,0.7190
2883977,0.2467,-0.8341,0.6984
2883994,0.2521,-0.8536,0.6608
2884010,0.2594,-0.8783,0.6096
2884038,0.2769,-0.9292,0.4924
2884078,0.2942,-0.9719,0.3854
2884093,0.2969,-0.9769,0.3740
2884109,0.3016,-0.9841,0.3613
2884119,0.3059,-0.9878,0.3594
2884134,0.3079,-0.9883,0.3610
2884150,0.3114,-0.9863,0.3656
2884166,0.3141,-0.9808,0.3668
2884184,0.3141,-0.9685,0.3491
2884200,0.2816,-0.9602,0.3159
2884216,0.3090,-0.9564,0.2595
2884232,0.3042,-0.9492,0.2205
2884250,0.2976,-0.9351,0.0604
2884261,0.2959,-0.9286,-0.0065
2884277,0.2932,-0.9138,-0.1553
2884292,0.2911,-0.8978,-0.3146
2884308,0.2883,-0.8824,-0.4714
2884349,0.2701,-0.8580,-0.7767
2884388,0.2428,-0.8641,-0.8771
2884398,0.2283,-0.8752,-0.8782
2884414,0.2148,-0.8889,-0.8523
2884430,0.2026,-0.9028,-0.8051
2884446,0.1914,-0.9149,-0.7424
2884487,0.1648,-0.9329,-0.5532
2884502,0.1593,-0.9347,-0.5144
2884518,0.1482,-0.9371,-0.4399
2884528,0.1371,-0.9385,-0.3724
2884545,0.1267,-0.9395,-0.3142
2884553,0.1218,-0.9399,-0.2891
2884566,0.1173,-0.9407,-0.2666
2884585,0.1064,-0.9437,-0.2156
2884602,0.1016,-0.9464,-0.1941
2884616,0.0999,-0.9480,-0.1865
2884632,0.0977,-0.9513,-0.1770
2884648,0.0970,-0.9545,-0.1733
2884658,0.0977,-0.9575,-0.1737
2884688,0.1005,-0.9615,-0.1788
2884704,0.1031,-0.9642,-0.1835
2884741,0.1113,-0.9705,-0.1954
2884757,0.1146,-0.9725,-0.2001
2884773,0.1177,-0.9742,-0.2048
2884783,0.1190,-0.9749,-0.2072
2884802,0.1211,-0.9755,-0.2120
2884818,0.1222,-0.9751,-0.2169
2884834,0.1224,-0.9736,-0.2220
2884844,0.1221,-0.9725,-0.2246
2884860,0.1210,-0.9695,-0.2296
2884874,0.1190,-0.9655,-0.2345
2884890,0.1166,-0.9609,-0.2389
2884944,0.1077,-0.9482,-0.2469
2884960,0.1052,-0.9459,-0.2479
2884990,0.1025,-0.9464,-0.2479
2885006,0.1024,-0.9495,-0.2478
2885022,0.1031,-0.9541,-0.2483
2885032,0.1038,-0.9568,-0.2489
2885048,0.1057,-0.9625,-0.2516
2885064,0.1080,-0.9680,-0.2561
2885074,0.1093,-0.9705,-0.2593
2885090,0.1118,-0.9742,-0.2671
2885120,0.1157,-0.9755,-0.2876
2885136,0.1165,-0.9725,-0.2998
2885152,0.1158,-0.9677,-0.3132
2885162,0.1150,-0.9645,-0.3208
2885178,0.1125,-0.9572,-0.3385
2885194,0.1096,-0.9481,-0.3616
2885210,0.1078,-0.9379,-0.3920
2885228,0.1082,-0.9264,-0.4303
2885244,0.1117,-0.9138,-0.4756
2885260,0.1182,-0.9006,-0.5247
2885307,0.1469,-0.8646,-0.6417
2885349,0.1615,-0.8552,-0.6213
2885365,0.1632,-0.8610,-0.5726
2885383,0.1642,-0.8727,-0.5028
2885399,0.1659,-0.8899,-0.4158
2885414,0.1696,-0.9113,-0.3164
2885430,0.1755,-0.9346,-0.2100
2885448,0.1838,-0.9570,-0.1018
2885464,0.1945,-0.9756,0.0035
2885482,0.2072,-0.9878,0.1028
2885498,0.2214,-0.9922,0.1936
2885538,0.2616,-0.9729,0.3796
2885556,0.2773,-0.9592,0.4391
2885564,0.2848,-0.9524,0.4658
2885601,0.3124,-0.9266,0.5714
2885616,0.3188,-0.9218,0.5994
2885632,0.3228,-0.9198,0.6189
2885649,0.3245,-0.9199,0.6305
2885665,0.3246,-0.9211,0.6354
2885683,0.3232,-0.9222,0.6348
2885698,0.3210,-0.9218,0.6310
2885735,0.3140,-0.9116,0.6215
2885751,0.3092,-0.9023,0.6194
2885767,0.3041,-0.8918,0.6193
2885777,0.3015,-0.8864,0.6196
2885793,0.2969,-0.8754,0.6194
2885809,0.2939,-0.8651,0.6152
2885825,0.2928,-0.8568,0.6036
2885843,0.2931,-0.8521,0.5817
2885859,0.2939,-0.8517,0.5469
2885875,0.2952,-0.8556,0.4971
2885906,0.2994,-0.8730,0.3459
2885952,0.3099,-0.9009,-0.0056
2885966,0.3123,-0.9044,-0.0726
2885976,0.3170,-0.9114,-0.2067
2885990,0.3197,-0.9148,-0.2725
2886006,0.3258,-0.9211,-0.3992
2886022,0.3328,-0.9264,-0.5162
2886040,0.3450,-0.9304,-0.6667
2886056,0.3535,-0.9297,-0.7457
2886072,0.3575,-0.9280,-0.8046
2886090,0.3650,-0.9170,-0.8418
2886127,0.3530,-0.8866,-0.8517
2886143,0.3346,-0.8655,-0.8282
2886159,0.3091,-0.8419,-0.7903
2886169,0.2946,-0.8301,-0.7672
2886204,0.2172,-0.7854,-0.6331
2886219,0.2031,-0.7823,-0.6057
2886229,0.1787,-0.7843,-0.5532
2886245,0.1594,-0.7969,-0.5051
2886261,0.1451,-0.8185,-0.4623
2886276,0.1398,-0.8318,-0.4431
2886316,0.1246,-0.9066,-0.3676
2886330,0.1221,-0.9338,-0.3457
2886346,0.1208,-0.9568,-0.3273
2886356,0.1206,-0.9663,-0.3191
2886372,0.1211,-0.9814,-0.3043
2886388,0.1227,-0.9912,-0.2914
2886404,0.1256,-0.9958,-0.2798
2886421,0.1295,-0.9957,-0.2698
2886437,0.1339,-0.9915,-0.2615
2886453,0.1385,-0.9836,-0.2549
2886469,0.1427,-0.9733,-0.2502
2886487,0.1460,-0.9612,-0.2474
2886521,0.1493,-0.9370,-0.2468
2886537,0.1495,-0.9271,-0.2485
2886599,0.1466,-0.9161,-0.2662
2886608,0.1464,-0.9177,-0.2697
2886626,0.1461,-0.9224,-0.2771
2886642,0.1461,-0.9285,-0.2852
2886657,0.1464,-0.9353,-0.2938
2886672,0.1465,-0.9425,-0.3025
2886682,0.1466,-0.9462,-0.3068
2886700,0.1466,-0.9532,-0.3149
2886716,0.1464,-0.9597,-0.3220
2886731,0.1459,-0.9651,-0.3273
2886768,0.1425,-0.9720,-0.3293
2886783,0.1415,-0.9723,-0.3281
2886825,0.1379,-0.9707,-0.3397
2886842,0.1395,-0.9702,-0.3661
2886858,0.1429,-0.9700,-0.4106
2886873,0.1453,-0.9700,-0.4399
2886889,0.1512,-0.9703,-0.5110
2886899,0.1587,-0.9708,-0.5935
2886910,0.1627,-0.9708,-0.6364
2886926,0.1718,-0.9694,-0.7195
2886941,0.1814,-0.9645,-0.7897
2886957,0.1906,-0.9545,-0.8375
2887003,0.2067,-0.9028,-0.8209
2887018,0.2097,-0.8728,-0.7578
2887028,0.2109,-0.8568,-0.7159
2887044,0.2134,-0.8247,-0.6154
2887060,0.2167,-0.7948,-0.4984
2887076,0.2218,-0.7695,-0.3722
2887094,0.2294,-0.7198,-0.1790
2887133,0.2576,-0.7443,0.0646
2887143,0.2639,-0.7809,0.1759
2887180,0.2925,-0.8013,0.3754
2887196,0.3016,-0.8286,0.4631
2887212,0.3096,-0.8560,0.5419
2887222,0.3132,-0.8688,0.5775
2887238,0.3201,-0.8912,0.6407
2887254,0.3267,-0.9078,0.6921
2887270,0.3334,-0.9176,0.7313
2887288,0.3402,-0.9210,0.7588
2887304,0.3472,-0.9193,0.7760
2887320,0.3538,-0.9141,0.7847
2887336,0.3597,-0.9064,0.7869
2887353,0.3645,-0.8967,0.7844
2887383,0.3695,-0.8726,0.7726
2887399,0.3698,-0.8596,0.7657
2887427,0.3678,-0.8427,0.7557
2887437,0.3666,-0.8384,0.7523
2887453,0.3640,-0.8326,0.7435
2887469,0.3611,-0.8311,0.7302
2887485,0.3582,-0.8326,0.7095
2887503,0.3545,-0.8353,0.6587
2887519,0.3499,-0.8379,0.6356
2887535,0.3446,-0.8397,0.5787
2887553,0.3387,-0.8425,0.4604
2887601,0.3430,-0.8489,0.1650
2887616,0.3463,-0.8567,0.0212
2887637,0.3470,-0.8800,-0.2036
2887652,0.3440,-0.9028,-0.3506
2887668,0.3384,-0.9290,-0.4879
2887684,0.3306,-0.9561,-0.6084
2887702,0.3201,-0.9822,-0.7048
2887730,0.2986,-1.0162,-0.7928
2887746,0.2799,-1.0341,-0.8108
2887757,0.2583,-1.0464,-0.7982
2887798,0.1995,-1.0488,-0.6677
2887813,0.1881,-1.0447,-0.6311
2887831,0.1571,-1.0253,-0.5132
2887846,0.1478,-1.0171,-0.4731
2887860,0.1316,-0.9999,-0.3953
2887876,0.1184,-0.9830,-0.3228
2887894,0.1086,-0.9686,-0.2578
2887910,0.1023,-0.9578,-0.2017
2887926,0.0992,-0.9507,-0.1550
2887942,0.0988,-0.9474,-0.1178
2887999,0.1080,-0.9542,-0.0530
2888035,0.1173,-0.9622,-0.0511
2888045,0.1190,-0.9631,-0.0532
2888061,0.1223,-0.9646,-0.0586
2888077,0.1252,-0.9655,-0.0646
2888093,0.1278,-0.9658,-0.0706
2888111,0.1302,-0.9657,-0.0763
2888127,0.1324,-0.9653,-0.0817
2888143,0.1348,-0.9648,-0.0867
2888164,0.1370,-0.9642,-0.0914
2888194,0.1414,-0.9629,-0.1006
2888210,0.1432,-0.9618,-0.1047
2888226,0.1448,-0.9604,-0.1084
2888236,0.1455,-0.9598,-0.1100
2888252,0.1466,-0.9589,-0.1128
2888268,0.1476,-0.9585,-0.1154
2888284,0.1488,-0.9594,-0.1184
2888302,0.1503,-0.9617,-0.1227
2888337,0.1545,-0.9700,-0.1440
2888353,0.1570,-0.9758,-0.1509
2888391,0.1620,-0.9957,-0.1984
2888407,0.1627,-1.0055,-0.2247
2888425,0.1625,-1.0156,-0.2572
2888441,0.1619,-1.0253,-0.2977
2888456,0.1617,-1.0334,-0.3478
2888471,0.1628,-1.0391,-0.4072
2888489,0.1655,-1.0413,-0.4731
2888505,0.1688,-1.0394,-0.5403
2888521,0.1713,-1.0331,-0.6019
2888537,0.1711,-1.0221,-0.6508
2888558,0.1675,-1.0063,-0.6805
2888568,0.1599,-0.9857,-0.6864
2888582,0.1548,-0.9738,-0.6794
2888598,0.1429,-0.9475,-0.6456
2888617,0.1240,-0.9069,-0.5482
2888692,0.1141,-0.8364,-0.0457
2888705,0.1199,-0.8317,0.0778
2888720,0.1351,-0.8304,0.1381
2888735,0.1544,-0.8303,0.2542
2888751,0.1763,-0.8335,0.3627
2888790,0.2301,-0.8568,0.5865
2888806,0.2465,-0.8716,0.6510
2888822,0.2572,-0.8875,0.6982
2888832,0.2601,-0.8953,0.7151
2888848,0.2610,-0.9099,0.7360
2888864,0.2554,-0.9226,0.7410
2888878,0.2446,-0.9330,0.7330
2888896,0.2308,-0.9409,0.7162
2888912,0.2162,-0.9462,0.6951
2888947,0.1915,-0.9467,0.6562
2888957,0.1870,-0.9440,0.6497
2888975,0.1805,-0.9288,0.6416
2888991,0.1771,-0.9216,0.6431
2889007,0.1763,-0.9049,0.6517
2889060,0.1849,-0.8457,0.7115
2889076,0.1879,-0.8339,0.7214
2889086,0.1892,-0.8291,0.7225
2889102,0.1920,-0.8219,0.7141
2889118,0.1949,-0.8175,0.6885
2889134,0.1979,-0.8163,0.6432
2889152,0.2000,-0.8193,0.5763
2889168,0.2010,-0.8271,0.4874
2889178,0.2014,-0.8328,0.4348
2889194,0.2032,-0.8464,0.3142
2889210,0.2074,-0.8611,0.1765
2889239,0.2194,-0.8899,-0.1228
2889267,0.2264,-0.9152,-0.3369
2889285,0.2306,-0.9352,-0.4629
2889301,0.2352,-0.9563,-0.5703
2889317,0.2404,-0.9768,-0.6555
2889333,0.2449,-0.9950,-0.7155
2889351,0.2473,-1.0090,-0.7551
2889367,0.2460,-1.0179,-0.7552
2889382,0.2399,-1.0209,-0.7382
2889393,0.2285,-1.0176,-0.7017
2889408,0.2211,-1.0138,-0.6776
2889437,0.1818,-0.9877,-0.5588
2889453,0.1592,-0.9709,-0.4941
2889468,0.1371,-0.9547,-0.4313
2889486,0.1173,-0.9408,-0.3728
2889502,0.1013,-0.9307,-0.3207
2889518,0.0901,-0.9254,-0.2755
2889534,0.0839,-0.9253,-0.2375
2889572,0.0848,-0.9434,-0.1697
2889588,0.0901,-0.9491,-0.1288
2889598,0.0974,-0.9614,-0.1438
2889647,0.1254,-0.9972,-0.1176
2889663,0.1349,-1.0063,-0.1150
2889681,0.1433,-1.0133,-0.1144
2889697,0.1503,-1.0177,-0.1152
2889713,0.1553,-1.0199,-0.1167
2889729,0.1582,-1.0195,-0.1187
2889747,0.1592,-1.0168,-0.1207
2889763,0.1582,-1.0121,-0.1228
2889779,0.1558,-1.0055,-0.1249
2889795,0.1521,-0.9980,-0.1267
2889809,0.1500,-0.9904,-0.1284
2889842,0.1390,-0.9766,-0.1311
2889890,0.1304,-0.9650,-0.1361
2889900,0.1281,-0.9618,-0.1400
2889915,0.1272,-0.9604,-0.1426
2889931,0.1261,-0.9583,-0.1490
2889947,0.1255,-0.9568,-0.1572
2889964,0.1255,-0.9562,-0.1672
2889980,0.1265,-0.9568,-0.1794
2889996,0.1288,-0.9587,-0.1945
2890007,0.1329,-0.9629,-0.2126
2890023,0.1393,-0.9690,-0.2340
2890069,0.1616,-0.9901,-0.2935
2890085,0.1699,-0.9993,-0.3180
2890095,0.1736,-1.0035,-0.3309
2890111,0.1797,-1.0110,-0.3596
2890127,0.1847,-1.0159,-0.3944
2890143,0.1892,-1.0171,-0.4368
2890181,0.1964,-0.9956,-0.5656
2890197,0.1945,-0.9752,-0.6143
2890207,0.1919,-0.9628,-0.6349
2890244,0.1650,-0.8884,-0.6716
2890260,0.1506,-0.8612,-0.6462
2890276,0.1372,-0.8409,-0.5956
2890286,0.1316,-0.8347,-0.5610
2890302,0.1243,-0.8308,-0.4749
2890318,0.1238,-0.8386,-0.3695
2890334,0.1313,-0.8557,-0.2501
2890352,0.1469,-0.8776,-0.1227
2890368,0.1692,-0.8998,0.0071
2890384,0.1959,-0.9183,0.1340
2890400,0.2245,-0.9303,0.2540
2890411,0.2386,-0.9330,0.3103
2890441,0.2881,-0.9208,0.5034
2890457,0.3070,-0.9028,0.5786
2890485,0.3281,-0.8673,0.6650
2890495,0.3335,-0.8549,0.6874
2890511,0.3424,-0.8312,0.7236
2890527,0.3495,-0.8115,0.7506
2890543,0.3555,-0.7981,0.7709
2890561,0.3611,-0.7914,0.7861
2890577,0.3661,-0.7909,0.7982
2890593,0.3702,-0.7948,0.8080
2890611,0.3737,-0.8037,0.8187
2890630,0.3737,-0.8087,0.8232
2890675,0.3641,-0.8110,0.8220
2890691,0.3566,-0.8096,0.8146
2890701,0.3470,-0.8083,0.8011
2890717,0.3418,-0.8081,0.7795
2890733,0.3306,-0.8087,0.7338
2890749,0.3186,-0.8123,0.7267
2890767,0.2987,-0.8248,0.6426
2890795,0.2766,-0.8461,0.5243
2890813,0.2617,-0.8635,0.4275
2890850,0.2299,-0.9052,0.1362
2890859,0.2245,-0.9114,0.0731
2890875,0.2144,-0.9214,-0.0521
2890896,0.2043,-0.9298,-0.1715
2890915,0.1910,-0.9423,-0.3323
2890931,0.1847,-0.9507,-0.4258
2890947,0.1810,-0.9573,-0.5078
2890957,0.1799,-0.9594,-0.5443
2890972,0.1785,-0.9602,-0.6072
2890988,0.1768,-0.9565,-0.6553
2891004,0.1733,-0.9490,-0.6879
2891015,0.1707,-0.9440,-0.6985
2891061,0.1438,-0.9071,-0.6926
2891095,0.1249,-0.8918,-0.6436
2891105,0.1207,-0.8904,-0.6278
2891121,0.1128,-0.8904,-0.5930
2891137,0.1052,-0.8943,-0.5538
2891153,0.0975,-0.9019,-0.5109
2891171,0.0898,-0.9121,-0.4646
2891187,0.0820,-0.9243,-0.4164
2891203,0.0747,-0.9370,-0.3680
2891221,0.0684,-0.9491,-0.3213
2891258,0.0612,-0.9733,-0.2214
2891274,0.0627,-0.9801,-0.1915
2891290,0.0669,-0.9854,-0.1683
2891300,0.0697,-0.9873,-0.1593
2891316,0.0764,-0.9900,-0.1462
2891332,0.0837,-0.9910,-0.1393
2891348,0.0908,-0.9905,-0.1378
2891366,0.0968,-0.9885,-0.1406
2891402,0.1039,-0.9813,-0.1552
2891416,0.1046,-0.9767,-0.1646
2891430,0.1040,-0.9717,-0.1742
2891464,0.1007,-0.9611,-0.1920
2891479,0.0992,-0.9553,-0.1993
2891495,0.0984,-0.9497,-0.2052
2891505,0.0983,-0.9470,-0.2074
2891521,0.0985,-0.9424,-0.2103
2891537,0.0994,-0.9392,-0.2111
2891553,0.1005,-0.9379,-0.2097
2891571,0.1014,-0.9385,-0.2065
2891587,0.1024,-0.9413,-0.2024
2891603,0.1031,-0.9459,-0.1981
2891619,0.1036,-0.9520,-0.1946
2891630,0.1040,-0.9553,-0.1935
2891674,0.1051,-0.9772,-0.2067
2891727,0.1147,-0.9979,-0.3129
2891737,0.1187,-1.0006,-0.3466
2891753,0.1290,-1.0045,-0.4291
2891769,0.1422,-1.0051,-0.5281
2891785,0.1565,-1.0007,-0.6356
2891803,0.1688,-0.9895,-0.7408
2891819,0.1771,-0.9708,-0.8311
2891837,0.1797,-0.9319,-0.9150
2891853,0.1768,-0.9175,-0.9254
2891892,0.1576,-0.8530,-0.8346
2891908,0.1530,-0.8365,-0.7396
2891923,0.1539,-0.8274,-0.6210
2891933,0.1571,-0.8256,-0.5552
2891949,0.1687,-0.8273,-0.4152
2891965,0.1866,-0.8346,-0.2695
2891980,0.2089,-0.8452,-0.1241
2892014,0.2578,-0.8672,0.1490
2892030,0.2815,-0.8752,0.2709
2892041,0.2928,-0.8783,0.3271
2892097,0.3480,-0.8759,0.6407
2892113,0.3501,-0.8671,0.7103
2892123,0.3480,-0.8611,0.7739
2892139,0.3383,-0.8462,0.8021
2892155,0.3219,-0.8278,0.8534
2892171,0.3015,-0.8077,0.8950
2892189,0.2693,-0.7800,0.9355
2892205,0.2596,-0.7727,0.9469
2892221,0.2430,-0.7622,0.9480
2892237,0.2310,-0.7584,0.9418
2892247,0.2238,-0.7614,0.9258
2892279,0.2220,-0.7854,0.8708
2892295,0.2238,-0.8048,0.8344
2892329,0.2347,-0.8505,0.7468
2892339,0.2362,-0.8616,0.7222
2892355,0.2369,-0.8810,0.6692
2892371,0.2347,-0.8955,0.6102
2892387,0.2300,-0.9037,0.5443
2892405,0.2228,-0.9048,0.4702
2892421,0.2135,-0.8993,0.3879
2892436,0.2021,-0.8892,0.2975
2892454,0.1898,-0.8760,0.1990
2892493,0.1632,-0.8384,-0.0756
2892509,0.1573,-0.8274,-0.1901
2892525,0.1562,-0.8242,-0.3026
2892535,0.1577,-0.8263,-0.3569
2892551,0.1654,-0.8384,-0.4597
2892567,0.1785,-0.8596,-0.5514
2892583,0.1949,-0.8871,-0.6289
2892601,0.2120,-0.9172,-0.6899
2892629,0.2332,-0.9594,-0.7474
2892648,0.2441,-0.9888,-0.7628
2892659,0.2450,-0.9945,-0.7590
2892706,0.2207,-0.9885,-0.6626
2892722,0.2052,-0.9769,-0.6117
2892732,0.1971,-0.9709,-0.5846
2892748,0.1812,-0.9603,-0.5288
2892764,0.1665,-0.9531,-0.4730
2892780,0.1538,-0.9508,-0.4192
2892798,0.1431,-0.9532,-0.3691
2892814,0.1345,-0.9594,-0.3241
2892830,0.1279,-0.9674,-0.2852
2892846,0.1228,-0.9755,-0.2524
2892899,0.1130,-0.9846,-0.1885
2892947,0.1097,-0.9685,-0.1570
2892960,0.1113,-0.9611,-0.1503
2892976,0.1149,-0.9545,-0.1449
2892992,0.1205,-0.9496,-0.1409
2893008,0.1278,-0.9471,-0.1382
2893018,0.1320,-0.9470,-0.1375
2893034,0.1410,-0.9485,-0.1373
2893050,0.1504,-0.9523,-0.1393
2893072,0.1633,-0.9607,-0.1465
2893120,0.1753,-0.9755,-0.1688
2893136,0.1744,-0.9791,-0.1796
2893146,0.1699,-0.9808,-0.1901
2893162,0.1621,-0.9810,-0.2000
2893178,0.1572,-0.9806,-0.2092
2893194,0.1464,-0.9792,-0.2136
2893212,0.1293,-0.9775,-0.2261
2893240,0.1141,-0.9769,-0.2368
2893256,0.1061,-0.9773,-0.2424
2893297,0.0948,-0.9781,-0.2482
2893313,0.0931,-0.9773,-0.2468
2893329,0.0917,-0.9752,-0.2437
2893339,0.0908,-0.9735,-0.2413
2893355,0.0883,-0.9688,-0.2356
2893371,0.0841,-0.9615,-0.2295
2893387,0.0787,-0.9515,-0.2246
2893405,0.0724,-0.9391,-0.2229
2893421,0.0657,-0.9254,-0.2257
2893437,0.0592,-0.9122,-0.2336
2893453,0.0541,-0.9017,-0.2463
2893471,0.0509,-0.8961,-0.2626
2893481,0.0502,-0.8965,-0.2805
2893497,0.0508,-0.8992,-0.2977
2893513,0.0537,-0.9089,-0.3054
2893541,0.0637,-0.9415,-0.3252
2893572,0.0708,-0.9800,-0.3197
2893588,0.0713,-0.9972,-0.3063
2893604,0.0702,-1.0112,-0.2865
2893614,0.0692,-1.0168,-0.2745
2893630,0.0675,-1.0247,-0.2476
2893646,0.0663,-1.0275,-0.2179
2893662,0.0662,-1.0251,-0.1871
2893680,0.0674,-1.0179,-0.1567
2893691,0.0685,-1.0128,-0.1420
2893707,0.0717,-1.0005,-0.1143
2893723,0.0757,-0.9862,-0.0896
2893774,0.0876,-0.9448,-0.0392
2893790,0.0886,-0.9344,-0.0294
2893808,0.0862,-0.9249,-0.0200
2893844,0.0793,-0.9266,-0.0156
2893860,0.0765,-0.9346,-0.0156
2893870,0.0754,-0.9401,-0.0156
2893886,0.0743,-0.9539,-0.0154
2893896,0.0742,-0.9617,-0.0150
2893912,0.0751,-0.9778,-0.0140
2893928,0.0769,-0.9930,-0.0135
2893959,0.0811,-1.0127,-0.0182
2893974,0.0818,-1.0156,-0.0249
2893990,0.0808,-1.0142,-0.0349
2894003,0.0796,-1.0121,-0.0413
2894019,0.0756,-1.0060,-0.0565
2894035,0.0698,-0.9985,-0.0750
2894051,0.0627,-0.9910,-0.0953
2894061,0.0590,-0.9875,-0.1161
2894077,0.0516,-0.9819,-0.1262
2894093,0.0450,-0.9779,-0.1453
2894104,0.0393,-0.9744,-0.1627
2894159,0.0245,-0.9679,-0.1962
2894187,0.0223,-0.9733,-0.1897
2894197,0.0234,-0.9756,-0.1851
2894213,0.0275,-0.9802,-0.1736
2894229,0.0332,-0.9839,-0.1610
2894245,0.0399,-0.9860,-0.1493
2894263,0.0466,-0.9862,-0.1393
2894279,0.0529,-0.9851,-0.1317
2894295,0.0577,-0.9827,-0.1270
2894305,0.0596,-0.9811,-0.1256
2894321,0.0621,-0.9774,-0.1251
2894352,0.0637,-0.9718,-0.1293
2894368,0.0636,-0.9711,-0.1322
2894384,0.0629,-0.9716,-0.1353
2894394,0.0624,-0.9722,-0.1367
2894410,0.0612,-0.9739,-0.1399
2894426,0.0593,-0.9760,-0.1432
2894442,0.0571,-0.9780,-0.1466
2894460,0.0546,-0.9799,-0.1500
2894498,0.0465,-0.9813,-0.1602
2894508,0.0447,-0.9806,-0.1626
2894547,0.0365,-0.9752,-0.1724
2894563,0.0348,-0.9745,-0.1732
2894579,0.0347,-0.9746,-0.1721
2894589,0.0353,-0.9750,-0.1709
2894605,0.0375,-0.9758,-0.1676
2894621,0.0408,-0.9766,-0.1636
2894637,0.0446,-0.9771,-0.1594
2894666,0.0492,-0.9773,-0.1544
2894675,0.0510,-0.9772,-0.1523
2894691,0.0516,-0.9769,-0.1514
2894709,0.0520,-0.9767,-0.1515
2894756,0.0509,-0.9760,-0.1562
2894792,0.0497,-0.9755,-0.1604
2894802,0.0494,-0.9753,-0.1614
2894818,0.0487,-0.9751,-0.1630
2894834,0.0480,-0.9747,-0.1642
2894850,0.0471,-0.9746,-0.1648
2894868,0.0463,-0.9744,-0.1648
2894884,0.0457,-0.9740,-0.1644
2894900,0.0453,-0.9736,-0.1636
2894910,0.0452,-0.9734,-0.1630
2894926,0.0452,-0.9728,-0.1617
2894957,0.0455,-0.9719,-0.1597
2894973,0.0458,-0.9718,-0.1592
2894989,0.0459,-0.9719,-0.1593
2894999,0.0459,-0.9722,-0.1597
2895015,0.0459,-0.9728,-0.1608
2895031,0.0459,-0.9735,-0.1625
2895047,0.0458,-0.9744,-0.1646
2895065,0.0458,-0.9752,-0.1667
2895093,0.0459,-0.9764,-0.1704
2895112,0.0463,-0.9767,-0.1716
2895170,0.0481,-0.9750,-0.1710
2895186,0.0483,-0.9739,-0.1700
2895196,0.0485,-0.9733,-0.1696
2895212,0.0482,-0.9722,-0.1688
2895228,0.0476,-0.9713,-0.1683
2895244,0.0468,-0.9707,-0.1681
2895262,0.0459,-0.9706,-0.1682
2895277,0.0450,-0.9707,-0.1686
2895292,0.0444,-0.9712,-0.1692
2895307,0.0442,-0.9717,-0.1699
2895317,0.0441,-0.9720,-0.1703
2895348,0.0447,-0.9729,-0.1719
2895363,0.0452,-0.9731,-0.1726
2895399,0.0460,-0.9733,-0.1740
2895409,0.0461,-0.9733,-0.1742
2895425,0.0463,-0.9730,-0.1747
2895441,0.0461,-0.9728,-0.1750
2895457,0.0460,-0.9725,-0.1753
2895475,0.0458,-0.9722,-0.1755
2895488,0.0457,-0.9719,-0.1755
2895504,0.0455,-0.9718,-0.1755
2895522,0.0457,-0.9717,-0.1755
2895561,0.0461,-0.9716,-0.1757
2895577,0.0463,-0.9717,-0.1759
2895593,0.0463,-0.9718,-0.1764
2895603,0.0461,-0.9719,-0.1766
2895619,0.0460,-0.9722,-0.1772
2895635,0.0458,-0.9723,-0.1779
2895650,0.0455,-0.9723,-0.1786
2895667,0.0453,-0.9722,-0.1792
2895703,0.0450,-0.9717,-0.1801
2895718,0.0450,-0.9713,-0.1803
2895728,0.0450,-0.9713,-0.1804
2895772,0.0453,-0.9712,-0.1808
2895786,0.0454,-0.9713,-0.1809
2895804,0.0457,-0.9717,-0.1814
2895819,0.0458,-0.9718,-0.1816
2895835,0.0460,-0.9720,-0.1821
2895851,0.0461,-0.9722,-0.1825
2895869,0.0459,-0.9724,-0.1830
2895884,0.0458,-0.9724,-0.1831
2895900,0.0455,-0.9723,-0.1832
2895916,0.0453,-0.9720,-0.1833
2895957,0.0454,-0.9714,-0.1836
2895973,0.0457,-0.9713,-0.1836
2896027,0.0468,-0.9707,-0.1844
2896037,0.0469,-0.9706,-0.1847
2896052,0.0469,-0.9706,-0.1852
2896068,0.0468,-0.9707,-0.1858
2896084,0.0465,-0.9707,-0.1864
2896102,0.0461,-0.9709,-0.1869
2896118,0.0459,-0.9709,-0.1873
2896137,0.0457,-0.9711,-0.1875
2896153,0.0454,-0.9711,-0.1875
2896201,0.0450,-0.9707,-0.1866
2896210,0.0450,-0.9707,-0.1865
2896231,0.0450,-0.9706,-0.1859
2896247,0.0450,-0.9705,-0.1857
2896263,0.0452,-0.9705,-0.1855
2896279,0.0452,-0.9703,-0.1855
2896289,0.0452,-0.9703,-0.1855
2896311,0.0452,-0.9703,-0.1858
2896326,0.0452,-0.9703,-0.1858
2896336,0.0450,-0.9705,-0.1859
2896375,0.0450,-0.9703,-0.1862
2896391,0.0450,-0.9702,-0.1862
2896407,0.0450,-0.9701,-0.1860
2896417,0.0450,-0.9698,-0.1860
2896432,0.0450,-0.9698,-0.1860
2896448,0.0449,-0.9696,-0.1860
2896464,0.0447,-0.9695,-0.1862
2896482,0.0446,-0.9694,-0.1864
2896497,0.0443,-0.9691,-0.1866
2896514,0.0442,-0.9691,-0.1869
2896530,0.0442,-0.9692,-0.1873
2896540,0.0443,-0.9694,-0.1877
2896571,0.0448,-0.9696,-0.1884
2896587,0.0452,-0.9698,-0.1888
2896629,0.0457,-0.9701,-0.1898
2896639,0.0457,-0.9701,-0.1899
2896655,0.0454,-0.9702,-0.1902
2896682,0.0450,-0.9703,-0.1904
2896691,0.0448,-0.9703,-0.1906
2896707,0.0444,-0.9705,-0.1906
2896723,0.0441,-0.9706,-0.1904
2896741,0.0438,-0.9706,-0.1903
2896757,0.0436,-0.9706,-0.1901
2896800,0.0432,-0.9703,-0.1893
2896816,0.0432,-0.9702,-0.1891
2896834,0.0432,-0.9698,-0.1888
2896849,0.0432,-0.9697,-0.1887
2896865,0.0431,-0.9695,-0.1887
2896881,0.0428,-0.9692,-0.1890
2896899,0.0425,-0.9690,-0.1895
2896927,0.0421,-0.9689,-0.1902
2896945,0.0420,-0.9689,-0.1907
2896984,0.0419,-0.9689,-0.1918
2896999,0.0419,-0.9690,-0.1920
2897013,0.0420,-0.9690,-0.1921
2897031,0.0419,-0.9691,-0.1921
2897047,0.0419,-0.9692,-0.1923
2897062,0.0417,-0.9694,-0.1923
2897078,0.0417,-0.9696,-0.1923
2897096,0.0419,-0.9700,-0.1925
2897111,0.0419,-0.9701,-0.1925
2897127,0.0419,-0.9701,-0.1926
2897143,0.0417,-0.9701,-0.1929
2897154,0.0415,-0.9700,-0.1929
2897202,0.0408,-0.9694,-0.1927
2897230,0.0406,-0.9690,-0.1925
2897240,0.0406,-0.9689,-0.1925
2897256,0.0408,-0.9688,-0.1924
2897272,0.0409,-0.9686,-0.1924
2897288,0.0409,-0.9688,-0.1926
2897309,0.0409,-0.9690,-0.1930
2897325,0.0408,-0.9692,-0.1932
2897340,0.0408,-0.9694,-0.1934
2897358,0.0408,-0.9697,-0.1936
2897389,0.0408,-0.9697,-0.1936
2897405,0.0409,-0.9697,-0.1936
