sys_ms,acc_x,acc_y,acc_z
339147,0.0039,-0.3507,0.9691
339289,-0.0059,-0.3564,0.9614
339306,-0.0071,-0.3575,0.9585
339329,-0.0082,-0.3586,0.9553
339350,-0.0092,-0.3599,0.9518
339378,-0.0099,-0.3627,0.9442
339401,-0.0099,-0.3641,0.9402
339423,-0.0092,-0.3673,0.9325
339446,-0.0088,-0.3691,0.9288
339477,-0.0085,-0.3733,0.9222
339495,-0.0088,-0.3757,0.9193
339517,-0.0093,-0.3783,0.9164
339539,-0.0109,-0.3840,0.9110
339556,-0.0118,-0.3871,0.9083
339573,-0.0131,-0.3901,0.9058
339596,-0.0142,-0.3932,0.9031
339630,-0.0159,-0.3992,0.8976
339652,-0.0165,-0.4044,0.8922
339674,-0.0160,-0.4066,0.8895
339697,-0.0149,-0.4086,0.8871
339719,-0.0110,-0.4113,0.8828
339736,-0.0081,-0.4120,0.8812
339759,-0.0044,-0.4125,0.8800
339786,0.0051,-0.4126,0.8790
339820,0.0173,-0.4125,0.8800
339843,0.0244,-0.4126,0.8812
339867,0.0404,-0.4136,0.8846
339890,0.0492,-0.4143,0.8868
339912,0.0582,-0.4150,0.8894
339929,0.0675,-0.4158,0.8922
339951,0.0857,-0.4161,0.8987
339976,0.0941,-0.4155,0.9022
340010,0.1088,-0.4121,0.9102
340033,0.1190,-0.4055,0.9188
340058,0.1224,-0.4011,0.9231
340089,0.1254,-0.3905,0.9315
340112,0.1240,-0.3785,0.9388
340129,0.1219,-0.3723,0.9419
340151,0.1193,-0.3662,0.9443
340173,0.1160,-0.3604,0.9462
340219,0.1042,-0.3456,0.9484
340244,0.0964,-0.3391,0.9473
340266,0.0928,-0.3370,0.9463
340289,0.0896,-0.3358,0.9449
340309,0.0868,-0.3353,0.9435
340331,0.0828,-0.3365,0.9403
340352,0.0815,-0.3381,0.9387
340393,0.0808,-0.3450,0.9346
340417,0.0814,-0.3478,0.9336
340451,0.0837,-0.3530,0.9323
340474,0.0853,-0.3556,0.9320
340498,0.0891,-0.3597,0.9320
340521,0.0913,-0.3615,0.9324
340543,0.0957,-0.3636,0.9336
340560,0.0979,-0.3643,0.9344
340583,0.1001,-0.3645,0.9354
340607,0.1040,-0.3643,0.9376
340641,0.1068,-0.3628,0.9398
340663,0.1077,-0.3618,0.9409
340692,0.1083,-0.3594,0.9426
340709,0.1080,-0.3580,0.9432
340732,0.1074,-0.3567,0.9435
340754,0.1064,-0.3555,0.9435
340771,0.1052,-0.3544,0.9431
340793,0.1024,-0.3529,0.9414
340810,0.1008,-0.3525,0.9401
340844,0.0979,-0.3528,0.9366
340867,0.0964,-0.3535,0.9346
340891,0.0938,-0.3560,0.9304
340914,0.0925,-0.3577,0.9282
340936,0.0914,-0.3596,0.9263
340953,0.0902,-0.3617,0.9244
340975,0.0880,-0.3662,0.9214
341003,0.0857,-0.3705,0.9193
341039,0.0831,-0.3744,0.9185
341062,0.0819,-0.3760,0.9185
341086,0.0796,-0.3787,0.9191
341108,0.0785,-0.3796,0.9197
341131,0.0775,-0.3805,0.9205
341158,0.0759,-0.3813,0.9222
341181,0.0753,-0.3815,0.9232
341202,0.0747,-0.3812,0.9252
341224,0.0747,-0.3807,0.9260
341247,0.0747,-0.3802,0.9269
341269,0.0753,-0.3784,0.9286
341312,0.0759,-0.3759,0.9301
341336,0.0763,-0.3727,0.9313
341354,0.0763,-0.3708,0.9320
341375,0.0763,-0.3690,0.9326
341395,0.0762,-0.3671,0.9333
341418,0.0756,-0.3634,0.9348
341435,0.0751,-0.3615,0.9354
341458,0.0745,-0.3596,0.9362
341493,0.0730,-0.3558,0.9377
341516,0.0710,-0.3522,0.9392
341541,0.0699,-0.3503,0.9399
341563,0.0687,-0.3485,0.9407
341585,0.0660,-0.3453,0.9419
341602,0.0647,-0.3439,0.9424
341645,0.0619,-0.3412,0.9432
341682,0.0579,-0.3381,0.9436
341701,0.0565,-0.3373,0.9436
341726,0.0553,-0.3367,0.9434
341748,0.0530,-0.3356,0.9427
341771,0.0520,-0.3352,0.9425
341795,0.0502,-0.3347,0.9417
341817,0.0494,-0.3346,0.9412
341840,0.0488,-0.3345,0.9408
341859,0.0483,-0.3344,0.9404
341881,0.0477,-0.3344,0.9399
341904,0.0475,-0.3342,0.9397
341930,0.0474,-0.3344,0.9395
341954,0.0474,-0.3344,0.9393
341979,0.0476,-0.3344,0.9395
342002,0.0479,-0.3345,0.9397
342024,0.0481,-0.3345,0.9399
342041,0.0482,-0.3345,0.9402
342065,0.0487,-0.3345,0.9410
342088,0.0490,-0.3346,0.9415
342122,0.0493,-0.3346,0.9426
342145,0.0494,-0.3347,0.9436
342170,0.0494,-0.3348,0.9441
342192,0.0492,-0.3351,0.9447
342212,0.0491,-0.3353,0.9449
342236,0.0488,-0.3356,0.9451
342263,0.0482,-0.3361,0.9453
342282,0.0479,-0.3364,0.9454
342332,0.0471,-0.3378,0.9460
342352,0.0471,-0.3383,0.9464
342375,0.0475,-0.3398,0.9471
342395,0.0479,-0.3408,0.9474
342418,0.0482,-0.3419,0.9475
342437,0.0488,-0.3433,0.9475
342459,0.0503,-0.3468,0.9468
342476,0.0513,-0.3490,0.9459
342511,0.0540,-0.3542,0.9435
342534,0.0557,-0.3573,0.9419
342564,0.0597,-0.3635,0.9382
342582,0.0618,-0.3663,0.9364
342604,0.0659,-0.3710,0.9331
342626,0.0677,-0.3727,0.9318
342643,0.0695,-0.3740,0.9308
342666,0.0709,-0.3748,0.9299
342683,0.0721,-0.3752,0.9294
342717,0.0743,-0.3752,0.9288
342739,0.0763,-0.3746,0.9285
342764,0.0771,-0.3741,0.9281
342786,0.0787,-0.3733,0.9270
342808,0.0793,-0.3729,0.9261
342825,0.0798,-0.3727,0.9252
342848,0.0801,-0.3727,0.9240
342879,0.0803,-0.3730,0.9215
342908,0.0798,-0.3741,0.9188
342931,0.0795,-0.3750,0.9176
342955,0.0787,-0.3773,0.9156
342978,0.0785,-0.3787,0.9149
343000,0.0781,-0.3821,0.9142
343017,0.0782,-0.3840,0.9142
343039,0.0786,-0.3862,0.9144
343062,0.0793,-0.3887,0.9149
343079,0.0803,-0.3916,0.9156
343096,0.0815,-0.3948,0.9165
343118,0.0846,-0.4023,0.9180
343170,0.0885,-0.4163,0.9174
343194,0.0892,-0.4214,0.9160
343215,0.0896,-0.4320,0.9115
343236,0.0894,-0.4374,0.9086
343257,0.0887,-0.4427,0.9053
343274,0.0878,-0.4480,0.9019
343299,0.0850,-0.4576,0.8949
343322,0.0834,-0.4619,0.8918
343365,0.0778,-0.4712,0.8846
343384,0.0759,-0.4730,0.8831
343408,0.0743,-0.4745,0.8818
343428,0.0729,-0.4753,0.8810
343450,0.0710,-0.4761,0.8800
343467,0.0706,-0.4760,0.8798
343501,0.0710,-0.4756,0.8798
343540,0.0730,-0.4752,0.8799
343563,0.0765,-0.4752,0.8796
343588,0.0786,-0.4756,0.8793
343610,0.0811,-0.4762,0.8785
343632,0.0863,-0.4783,0.8766
343649,0.0892,-0.4797,0.8754
343672,0.0922,-0.4816,0.8740
343694,0.0986,-0.4860,0.8712
343730,0.1056,-0.4911,0.8690
343753,0.1093,-0.4938,0.8682
343775,0.1132,-0.4966,0.8677
343806,0.1211,-0.5023,0.8673
343829,0.1293,-0.5082,0.8680
343846,0.1332,-0.5111,0.8689
343869,0.1371,-0.5142,0.8700
343891,0.1442,-0.5203,0.8727
343908,0.1472,-0.5234,0.8741
343925,0.1498,-0.5267,0.8755
343947,0.1517,-0.5303,0.8766
343981,0.1536,-0.5381,0.8773
344004,0.1532,-0.5422,0.8768
344028,0.1497,-0.5511,0.8733
344051,0.1462,-0.5557,0.8701
344073,0.1361,-0.5646,0.8612
344090,0.1293,-0.5688,0.8553
344116,0.1213,-0.5728,0.8489
344134,0.1124,-0.5765,0.8417
344175,0.0802,-0.5856,0.8177
344198,0.0680,-0.5879,0.8092
344222,0.0424,-0.5918,0.7921
344244,0.0292,-0.5934,0.7837
344265,0.0160,-0.5950,0.7754
344288,-0.0101,-0.5979,0.7596
344310,-0.0228,-0.5992,0.7522
344328,-0.0350,-0.6007,0.7450
344394,-0.0789,-0.6071,0.7206
344417,-0.0883,-0.6088,0.7157
344439,-0.1045,-0.6119,0.7078
344462,-0.1115,-0.6133,0.7046
344484,-0.1174,-0.6145,0.7020
344501,-0.1226,-0.6156,0.7000
344523,-0.1298,-0.6168,0.6976
344540,-0.1318,-0.6171,0.6973
344577,-0.1327,-0.6163,0.6990
344600,-0.1313,-0.6155,0.7013
344624,-0.1255,-0.6128,0.7091
344647,-0.1211,-0.6110,0.7150
344669,-0.1097,-0.6056,0.7306
344686,-0.1031,-0.6021,0.7401
344727,-0.0889,-0.5930,0.7622
344745,-0.0813,-0.5876,0.7744
344771,-0.0657,-0.5757,0.8005
344793,-0.0577,-0.5692,0.8140
344817,-0.0420,-0.5559,0.8413
344840,-0.0342,-0.5493,0.8549
344862,-0.0265,-0.5428,0.8682
344879,-0.0189,-0.5366,0.8812
344901,-0.0044,-0.5250,0.9061
344924,0.0026,-0.5197,0.9176
344960,0.0167,-0.5106,0.9384
344983,0.0315,-0.5035,0.9553
345008,0.0393,-0.5009,0.9622
345031,0.0564,-0.4974,0.9718
345053,0.0657,-0.4967,0.9746
345070,0.0754,-0.4967,0.9758
345093,0.0856,-0.4972,0.9757
345115,0.1067,-0.4999,0.9712
345132,0.1173,-0.5020,0.9668
345149,0.1278,-0.5044,0.9611
345182,0.1476,-0.5104,0.9460
345219,0.1644,-0.5175,0.9266
345242,0.1714,-0.5212,0.9158
345266,0.1814,-0.5294,0.8920
345288,0.1846,-0.5338,0.8796
345309,0.1864,-0.5383,0.8672
345336,0.1866,-0.5477,0.8430
345383,0.1809,-0.5635,0.8103
345403,0.1783,-0.5691,0.8008
345426,0.1736,-0.5812,0.7842
345446,0.1719,-0.5876,0.7771
345469,0.1709,-0.5944,0.7706
345486,0.1707,-0.6012,0.7648
345508,0.1713,-0.6084,0.7595
345530,0.1755,-0.6235,0.7500
345549,0.1792,-0.6316,0.7458
345572,0.1841,-0.6399,0.7421
345594,0.1968,-0.6567,0.7352
345624,0.2122,-0.6732,0.7288
345648,0.2203,-0.6809,0.7255
345665,0.2284,-0.6880,0.7219
345688,0.2363,-0.6946,0.7183
345710,0.2513,-0.7059,0.7103
345727,0.2584,-0.7106,0.7061
345752,0.2650,-0.7147,0.7017
345774,0.2773,-0.7213,0.6929
345809,0.2883,-0.7256,0.6838
345831,0.2932,-0.7271,0.6794
345855,0.3019,-0.7285,0.6707
345877,0.3053,-0.7289,0.6663
345900,0.3080,-0.7289,0.6617
345917,0.3099,-0.7286,0.6573
345959,0.3097,-0.7272,0.6438
345995,0.3040,-0.7255,0.6355
346018,0.2993,-0.7245,0.6317
346042,0.2866,-0.7222,0.6260
346065,0.2789,-0.7209,0.6245
346087,0.2625,-0.7179,0.6255
346104,0.2540,-0.7161,0.6283
346126,0.2456,-0.7140,0.6328
346149,0.2372,-0.7115,0.6387
346166,0.2286,-0.7087,0.6459
346183,0.2200,-0.7056,0.6543
346205,0.2018,-0.6980,0.6737
346247,0.1827,-0.6886,0.6951
346271,0.1635,-0.6775,0.7170
346295,0.1541,-0.6713,0.7280
346316,0.1450,-0.6648,0.7389
346333,0.1365,-0.6580,0.7495
346352,0.1210,-0.6432,0.7701
346379,0.1141,-0.6354,0.7799
346399,0.1078,-0.6273,0.7892
346457,0.0854,-0.5945,0.8191
346480,0.0801,-0.5864,0.8246
346497,0.0746,-0.5786,0.8292
346519,0.0630,-0.5638,0.8362
346542,0.0569,-0.5570,0.8387
346583,0.0374,-0.5383,0.8433
346622,0.0238,-0.5280,0.8446
346647,0.0104,-0.5190,0.8450
346669,0.0039,-0.5151,0.8448
346697,-0.0082,-0.5082,0.8446
346719,-0.0135,-0.5051,0.8445
346742,-0.0182,-0.5023,0.8445
346759,-0.0220,-0.4996,0.8445
346781,-0.0266,-0.4949,0.8450
346798,-0.0271,-0.4928,0.8453
346836,-0.0244,-0.4889,0.8463
346859,-0.0212,-0.4873,0.8469
346882,-0.0115,-0.4851,0.8491
346899,-0.0050,-0.4847,0.8510
346922,0.0024,-0.4852,0.8536
346944,0.0106,-0.4865,0.8574
346961,0.0287,-0.4916,0.8690
346983,0.0381,-0.4958,0.8771
347000,0.0475,-0.5011,0.8866
347032,0.0653,-0.5148,0.9100
347055,0.0735,-0.5232,0.9235
347079,0.0879,-0.5419,0.9521
347102,0.0939,-0.5519,0.9662
347124,0.0988,-0.5621,0.9790
347141,0.1027,-0.5725,0.9901
347163,0.1067,-0.5929,1.0049
347199,0.1062,-0.6123,1.0076
347229,0.1022,-0.6300,0.9972
347252,0.0992,-0.6379,0.9872
347276,0.0920,-0.6512,0.9583
347299,0.0879,-0.6564,0.9398
347319,0.0836,-0.6605,0.9191
347341,0.0745,-0.6658,0.8718
347361,0.0699,-0.6670,0.8461
347383,0.0654,-0.6675,0.8193
347405,0.0610,-0.6670,0.7922
347428,0.0529,-0.6639,0.7384
347450,0.0491,-0.6613,0.7125
347496,0.0402,-0.6482,0.6439
347520,0.0381,-0.6423,0.6251
347538,0.0354,-0.6287,0.5950
347560,0.0348,-0.6212,0.5837
347583,0.0344,-0.6135,0.5752
347600,0.0342,-0.6061,0.5688
347617,0.0337,-0.5990,0.5647
347639,0.0306,-0.5876,0.5618
347671,0.0217,-0.5825,0.5637
347691,0.0144,-0.5833,0.5659
347713,0.0049,-0.5864,0.5688
347730,-0.0068,-0.5922,0.5724
347752,-0.0205,-0.6003,0.5765
347774,-0.0535,-0.6234,0.5867
347794,-0.0723,-0.6375,0.5925
347826,-0.1129,-0.6692,0.6060
347861,-0.1552,-0.7023,0.6213
347884,-0.1755,-0.7184,0.6296
347908,-0.2124,-0.7476,0.6465
347931,-0.2283,-0.7600,0.6545
347953,-0.2535,-0.7797,0.6693
347970,-0.2627,-0.7865,0.6755
347993,-0.2694,-0.7913,0.6810
348015,-0.2738,-0.7936,0.6855
348032,-0.2758,-0.7937,0.6893
348049,-0.2755,-0.7915,0.6923
348071,-0.2687,-0.7805,0.6964
348111,-0.2543,-0.7618,0.6996
348135,-0.2335,-0.7377,0.7041
348160,-0.2212,-0.7242,0.7076
348182,-0.1929,-0.6971,0.7184
348204,-0.1775,-0.6841,0.7256
348221,-0.1615,-0.6719,0.7341
348246,-0.1454,-0.6609,0.7437
348268,-0.1139,-0.6425,0.7651
348309,-0.0857,-0.6288,0.7881
348332,-0.0627,-0.6193,0.8105
348352,-0.0536,-0.6158,0.8210
348373,-0.0460,-0.6132,0.8307
348395,-0.0400,-0.6111,0.8395
348416,-0.0326,-0.6086,0.8538
348439,-0.0309,-0.6082,0.8591
348487,-0.0326,-0.6079,0.8674
348512,-0.0381,-0.6082,0.8658
348532,-0.0417,-0.6082,0.8630
348555,-0.0459,-0.6080,0.8590
348579,-0.0549,-0.6073,0.8477
348602,-0.0596,-0.6064,0.8409
348624,-0.0642,-0.6053,0.8336
348641,-0.0685,-0.6039,0.8259
348658,-0.0725,-0.6021,0.8182
348680,-0.0790,-0.5975,0.8033
348724,-0.0825,-0.5917,0.7904
348747,-0.0824,-0.5846,0.7804
348770,-0.0811,-0.5807,0.7769
348791,-0.0786,-0.5765,0.7744
348813,-0.0712,-0.5675,0.7728
348841,-0.0660,-0.5627,0.7737
348864,-0.0536,-0.5530,0.7788
348887,-0.0464,-0.5479,0.7828
348923,-0.0303,-0.5377,0.7981
348946,-0.0127,-0.5273,0.8035
348971,-0.0035,-0.5221,0.8087
348993,0.0150,-0.5115,0.8180
349016,0.0242,-0.5062,0.8217
349033,0.0332,-0.5010,0.8246
349058,0.0497,-0.4915,0.8284
349075,0.0570,-0.4874,0.8295
349118,0.0695,-0.4823,0.8314
349141,0.0791,-0.4825,0.8351
349166,0.0831,-0.4852,0.8383
349188,0.0895,-0.4961,0.8477
349213,0.0918,-0.5043,0.8539
349234,0.0936,-0.5140,0.8605
349256,0.0951,-0.5374,0.8730
349273,0.0946,-0.5505,0.8776
349316,0.0903,-0.5795,0.8790
349339,0.0809,-0.6121,0.8674
349363,0.0745,-0.6298,0.8564
349380,0.0671,-0.6484,0.8425
349399,0.0591,-0.6678,0.8265
349420,0.0425,-0.7075,0.7914
349442,0.0349,-0.7271,0.7742
349465,0.0282,-0.7460,0.7581
349483,0.0226,-0.7639,0.7435
349543,0.0155,-0.8190,0.7042
349561,0.0181,-0.8275,0.6986
349583,0.0223,-0.8337,0.6941
349605,0.0364,-0.8397,0.6879
349622,0.0459,-0.8396,0.6857
349645,0.0571,-0.8376,0.6841
349674,0.0840,-0.8291,0.6823
349705,0.1161,-0.8152,0.6825
349728,0.1335,-0.8068,0.6833
349745,0.1517,-0.7976,0.6846
349767,0.1882,-0.7778,0.6879
349789,0.2059,-0.7676,0.6899
349806,0.2228,-0.7573,0.6921
349829,0.2386,-0.7469,0.6945
349850,0.2661,-0.7267,0.7000
349873,0.2773,-0.7168,0.7029
349891,0.2867,-0.7070,0.7058
349913,0.2941,-0.6974,0.7089
349958,0.3027,-0.6698,0.7169
349982,0.2964,-0.6533,0.7202
349999,0.2896,-0.6460,0.7211
350022,0.2804,-0.6393,0.7212
350044,0.2690,-0.6333,0.7209
350061,0.2556,-0.6282,0.7201
350083,0.2235,-0.6207,0.7173
350100,0.2053,-0.6184,0.7156
350143,0.1664,-0.6165,0.7122
350166,0.1260,-0.6180,0.7096
350191,0.1061,-0.6202,0.7089
350213,0.0680,-0.6271,0.7085
350236,0.0503,-0.6317,0.7090
350260,0.0337,-0.6370,0.7097
350285,0.0045,-0.6492,0.7118
350303,-0.0081,-0.6559,0.7130
350339,-0.0288,-0.6698,0.7155
350360,-0.0370,-0.6766,0.7166
350382,-0.0496,-0.6891,0.7184
350403,-0.0542,-0.6943,0.7191
350425,-0.0577,-0.6987,0.7196
350449,-0.0630,-0.7045,0.7200
350472,-0.0651,-0.7057,0.7198
350497,-0.0686,-0.7046,0.7191
350549,-0.0751,-0.6957,0.7179
350587,-0.0809,-0.6863,0.7179
350605,-0.0846,-0.6809,0.7183
350627,-0.0929,-0.6698,0.7198
350650,-0.0977,-0.6641,0.7211
350667,-0.1027,-0.6584,0.7224
350689,-0.1080,-0.6528,0.7240
350706,-0.1136,-0.6475,0.7258
350742,-0.1310,-0.6327,0.7327
350765,-0.1367,-0.6283,0.7354
350789,-0.1481,-0.6202,0.7416
350811,-0.1536,-0.6166,0.7449
350834,-0.1588,-0.6130,0.7485
350851,-0.1637,-0.6097,0.7522
350891,-0.1761,-0.6000,0.7645
350908,-0.1791,-0.5967,0.7690
350936,-0.1813,-0.5934,0.7738
350959,-0.1831,-0.5865,0.7837
350986,-0.1825,-0.5829,0.7887
351008,-0.1782,-0.5747,0.7982
351031,-0.1746,-0.5702,0.8024
351048,-0.1702,-0.5653,0.8059
351070,-0.1592,-0.5543,0.8110
351092,-0.1528,-0.5485,0.8126
351131,-0.1388,-0.5364,0.8142
351154,-0.1235,-0.5255,0.8142
351195,-0.1077,-0.5181,0.8136
351228,-0.0912,-0.5162,0.8125
351249,-0.0828,-0.5181,0.8119
351271,-0.0647,-0.5280,0.8101
351294,-0.0552,-0.5360,0.8086
351332,-0.0349,-0.5586,0.8041
351353,-0.0128,-0.5889,0.7972
351375,-0.0009,-0.6061,0.7931
351396,0.0117,-0.6244,0.7886
351418,0.0386,-0.6619,0.7795
351439,0.0529,-0.6803,0.7750
351462,0.0671,-0.6979,0.7706
351502,0.1085,-0.7428,0.7585
351550,0.1409,-0.7716,0.7479
351575,0.1484,-0.7772,0.7448
351597,0.1541,-0.7810,0.7418
351619,0.1593,-0.7831,0.7368
351636,0.1587,-0.7816,0.7347
351659,0.1561,-0.7788,0.7329
351681,0.1454,-0.7697,0.7302
351698,0.1377,-0.7635,0.7292
351715,0.1287,-0.7567,0.7286
351738,0.1187,-0.7493,0.7284
351781,0.0856,-0.7241,0.7292
351805,0.0745,-0.7151,0.7300
351823,0.0637,-0.7058,0.7310
351845,0.0442,-0.6865,0.7334
351867,0.0358,-0.6768,0.7347
351884,0.0283,-0.6671,0.7358
351907,0.0217,-0.6575,0.7366
351924,0.0160,-0.6481,0.7367
351965,0.0009,-0.6226,0.7305
351988,-0.0044,-0.6155,0.7255
352014,-0.0166,-0.6050,0.7114
352037,-0.0237,-0.6019,0.7030
352059,-0.0314,-0.6006,0.6942
352076,-0.0486,-0.6038,0.6774
352109,-0.0675,-0.6156,0.6638
352126,-0.0774,-0.6245,0.6589
352162,-0.0975,-0.6477,0.6536
352185,-0.1077,-0.6610,0.6533
352209,-0.1273,-0.6888,0.6566
352231,-0.1367,-0.7024,0.6600
352254,-0.1458,-0.7150,0.6642
352271,-0.1544,-0.7263,0.6688
352293,-0.1703,-0.7441,0.6788
352316,-0.1774,-0.7502,0.6837
352354,-0.1897,-0.7561,0.6926
352375,-0.2000,-0.7538,0.6993
352413,-0.2085,-0.7439,0.7040
352434,-0.2124,-0.7367,0.7056
352455,-0.2163,-0.7283,0.7067
352472,-0.2244,-0.7089,0.7079
352494,-0.2288,-0.6985,0.7083
352517,-0.2334,-0.6881,0.7086
352564,-0.2483,-0.6575,0.7101
352589,-0.2582,-0.6384,0.7126
352612,-0.2627,-0.6293,0.7146
352634,-0.2666,-0.6205,0.7170
352651,-0.2699,-0.6121,0.7198
352673,-0.2739,-0.5958,0.7267
352696,-0.2745,-0.5883,0.7305
352721,-0.2728,-0.5740,0.7388
352752,-0.2671,-0.5610,0.7471
352774,-0.2628,-0.5552,0.7513
352791,-0.2577,-0.5499,0.7555
352814,-0.2517,-0.5450,0.7598
352836,-0.2375,-0.5371,0.7686
352853,-0.2296,-0.5339,0.7732
352876,-0.2212,-0.5312,0.7780
352898,-0.2125,-0.5291,0.7830
352915,-0.2037,-0.5272,0.7880
352932,-0.1951,-0.5256,0.7931
352951,-0.1786,-0.5233,0.8032
352993,-0.1639,-0.5215,0.8127
353025,-0.1517,-0.5201,0.8213
353046,-0.1466,-0.5195,0.8250
353068,-0.1382,-0.5184,0.8308
353091,-0.1349,-0.5179,0.8328
353115,-0.1320,-0.5175,0.8341
353139,-0.1273,-0.5165,0.8341
353162,-0.1252,-0.5160,0.8329
353190,-0.1206,-0.5149,0.8282
353213,-0.1177,-0.5143,0.8251
353247,-0.1035,-0.5132,0.8141
353270,-0.0964,-0.5133,0.8107
353293,-0.0879,-0.5137,0.8077
353330,-0.0540,-0.5178,0.8038
353352,-0.0403,-0.5204,0.8047
353387,-0.0105,-0.5277,0.8109
353407,0.0054,-0.5323,0.8167
353431,0.0385,-0.5435,0.8341
353453,0.0557,-0.5498,0.8457
353473,0.0730,-0.5568,0.8589
353497,0.1075,-0.5725,0.8889
353520,0.1243,-0.5813,0.9048
353542,0.1404,-0.5906,0.9204
353597,0.1934,-0.6337,0.9630
353628,0.2084,-0.6586,0.9596
353645,0.2120,-0.6719,0.9493
353668,0.2131,-0.6854,0.9332
353690,0.2117,-0.6993,0.9113
353707,0.2079,-0.7134,0.8838
353729,0.1941,-0.7407,0.8154
353754,0.1848,-0.7537,0.7762
353782,0.1631,-0.7771,0.6931
353805,0.1515,-0.7870,0.6515
353829,0.1287,-0.8022,0.5737
353852,0.1178,-0.8071,0.5394
353874,0.1077,-0.8102,0.5092
353891,0.0895,-0.8104,0.4623
353931,0.0743,-0.8033,0.4349
353977,0.0571,-0.7822,0.4291
354000,0.0525,-0.7734,0.4352
354017,0.0483,-0.7642,0.4446
354039,0.0446,-0.7548,0.4565
354061,0.0372,-0.7369,0.4861
354078,0.0336,-0.7291,0.5027
354101,0.0297,-0.7223,0.5197
354123,0.0204,-0.7130,0.5530
354143,0.0148,-0.7109,0.5687
354160,0.0084,-0.7108,0.5835
354183,0.0013,-0.7128,0.5972
354225,-0.0240,-0.7301,0.6300
354249,-0.0333,-0.7389,0.6381
354274,-0.0526,-0.7592,0.6487
354297,-0.0624,-0.7697,0.6512
354319,-0.0723,-0.7799,0.6521
354337,-0.0917,-0.7985,0.6487
354356,-0.1011,-0.8063,0.6450
354380,-0.1102,-0.8129,0.6404
354420,-0.1343,-0.8248,0.6238
354442,-0.1409,-0.8264,0.6184
354466,-0.1467,-0.8267,0.6134
354486,-0.1559,-0.8241,0.6056
354508,-0.1592,-0.8214,0.6028
354533,-0.1619,-0.8181,0.6008
354558,-0.1648,-0.8098,0.5991
354577,-0.1652,-0.8051,0.5992
354656,-0.1577,-0.7784,0.6052
354679,-0.1547,-0.7728,0.6066
354701,-0.1472,-0.7618,0.6088
354724,-0.1432,-0.7565,0.6097
354741,-0.1389,-0.7513,0.6106
354763,-0.1346,-0.7465,0.6115
354780,-0.1305,-0.7417,0.6123
354816,-0.1194,-0.7294,0.6158
354838,-0.1166,-0.7258,0.6174
354861,-0.1144,-0.7228,0.6194
354879,-0.1128,-0.7200,0.6217
354901,-0.1117,-0.7157,0.6281
354924,-0.1121,-0.7142,0.6326
354941,-0.1129,-0.7131,0.6382
354962,-0.1143,-0.7124,0.6451
354979,-0.1160,-0.7119,0.6536
355015,-0.1217,-0.7114,0.6870
355038,-0.1232,-0.7114,0.7004
355062,-0.1240,-0.7115,0.7145
355084,-0.1230,-0.7124,0.7422
355107,-0.1210,-0.7134,0.7546
355127,-0.1176,-0.7152,0.7654
355167,-0.0973,-0.7275,0.7827
355205,-0.0734,-0.7438,0.7791
355228,-0.0389,-0.7666,0.7635
355245,-0.0175,-0.7802,0.7521
355263,0.0066,-0.7944,0.7385
355286,0.0333,-0.8094,0.7234
355313,0.0930,-0.8391,0.6898
355331,0.1254,-0.8529,0.6721
355352,0.1584,-0.8656,0.6543
355375,0.1918,-0.8767,0.6364
355397,0.2563,-0.8932,0.6010
355417,0.2861,-0.8981,0.5840
355458,0.3690,-0.8987,0.5383
355485,0.3754,-0.8942,0.5256
355502,0.3881,-0.8875,0.5148
355524,0.3966,-0.8790,0.5059
355546,0.4016,-0.8577,0.4954
355563,0.3983,-0.8456,0.4939
355586,0.3917,-0.8329,0.4951
355604,0.3820,-0.8201,0.4990
355663,0.3197,-0.7714,0.5374
355683,0.3004,-0.7605,0.5511
355705,0.2803,-0.7502,0.5658
355727,0.2394,-0.7316,0.5962
355750,0.2194,-0.7229,0.6111
355785,0.1812,-0.7073,0.6383
355803,0.1632,-0.7003,0.6498
355845,0.1133,-0.6847,0.6736
355868,0.0978,-0.6816,0.6781
355892,0.0685,-0.6794,0.6833
355915,0.0548,-0.6803,0.6847
355937,0.0298,-0.6864,0.6854
355954,0.0184,-0.6915,0.6851
355976,0.0079,-0.6980,0.6843
355997,-0.0018,-0.7054,0.6832
356035,-0.0269,-0.7319,0.6781
356058,-0.0339,-0.7412,0.6758
356089,-0.0466,-0.7589,0.6707
356106,-0.0522,-0.7671,0.6681
356129,-0.0571,-0.7744,0.6654
356151,-0.0613,-0.7810,0.6630
356170,-0.0676,-0.7913,0.6584
356193,-0.0697,-0.7949,0.6562
356217,-0.0712,-0.7976,0.6541
356244,-0.0728,-0.7998,0.6495
356267,-0.0730,-0.7981,0.6443
356291,-0.0729,-0.7959,0.6414
356314,-0.0728,-0.7932,0.6382
356336,-0.0720,-0.7859,0.6320
356358,-0.0715,-0.7816,0.6290
356396,-0.0702,-0.7721,0.6240
356413,-0.0692,-0.7670,0.6219
356441,-0.0673,-0.7566,0.6189
356464,-0.0660,-0.7516,0.6178
356488,-0.0629,-0.7423,0.6169
356511,-0.0609,-0.7383,0.6172
356533,-0.0562,-0.7317,0.6188
356550,-0.0533,-0.7291,0.6200
356573,-0.0503,-0.7272,0.6216
356595,-0.0471,-0.7256,0.6233
356612,-0.0437,-0.7245,0.6251
356630,-0.0369,-0.7231,0.6288
356652,-0.0336,-0.7229,0.6306
356711,-0.0250,-0.7228,0.6371
356735,-0.0212,-0.7229,0.6384
356753,-0.0201,-0.7229,0.6398
356775,-0.0197,-0.7228,0.6411
356797,-0.0206,-0.7224,0.6436
356814,-0.0222,-0.7220,0.6447
356831,-0.0243,-0.7216,0.6459
356854,-0.0270,-0.7208,0.6471
356890,-0.0341,-0.7190,0.6495
356913,-0.0426,-0.7164,0.6523
356938,-0.0472,-0.7148,0.6538
356960,-0.0568,-0.7111,0.6571
356982,-0.0613,-0.7089,0.6591
356999,-0.0656,-0.7065,0.6610
357038,-0.0730,-0.7012,0.6654
357056,-0.0757,-0.6984,0.6680
357084,-0.0790,-0.6921,0.6737
357107,-0.0792,-0.6891,0.6772
357131,-0.0764,-0.6831,0.6859
357154,-0.0734,-0.6803,0.6912
357176,-0.0640,-0.6755,0.7036
357196,-0.0579,-0.6737,0.7107
357219,-0.0508,-0.6722,0.7181
357241,-0.0350,-0.6702,0.7341
357289,-0.0094,-0.6683,0.7600
357312,-0.0010,-0.6678,0.7693
357348,0.0155,-0.6666,0.7898
357369,0.0233,-0.6658,0.8013
357391,0.0380,-0.6633,0.8271
357411,0.0444,-0.6619,0.8416
357433,0.0500,-0.6603,0.8569
357450,0.0547,-0.6586,0.8730
357467,0.0581,-0.6567,0.8898
357489,0.0613,-0.6536,0.9238
357532,0.0593,-0.6520,0.9557
357553,0.0565,-0.6523,0.9691
357577,0.0471,-0.6555,0.9875
357600,0.0410,-0.6588,0.9912
357622,0.0267,-0.6693,0.9846
357658,0.0109,-0.6866,0.9574
357677,0.0029,-0.6984,0.9360
357736,-0.0234,-0.7631,0.8069
357758,-0.0277,-0.7820,0.7667
357776,-0.0308,-0.8011,0.7246
357798,-0.0328,-0.8201,0.6815
357820,-0.0342,-0.8551,0.5944
357837,-0.0339,-0.8705,0.5518
357860,-0.0333,-0.8842,0.5105
357877,-0.0328,-0.8960,0.4713
357913,-0.0322,-0.9137,0.4017
357936,-0.0330,-0.9231,0.3481
357960,-0.0339,-0.9247,0.3287
357978,-0.0353,-0.9242,0.3147
358000,-0.0389,-0.9171,0.3033
358022,-0.0413,-0.9106,0.3059
358040,-0.0437,-0.9026,0.3137
358061,-0.0463,-0.8929,0.3264
358078,-0.0490,-0.8820,0.3438
358114,-0.0555,-0.8430,0.4177
358137,-0.0569,-0.8289,0.4478
358162,-0.0576,-0.8146,0.4794
358184,-0.0568,-0.7863,0.5444
358207,-0.0553,-0.7727,0.5764
358227,-0.0530,-0.7598,0.6072
358267,-0.0431,-0.7266,0.6862
358305,-0.0353,-0.7098,0.7240
358329,-0.0316,-0.7034,0.7379
358350,-0.0251,-0.6942,0.7556
358372,-0.0228,-0.6918,0.7596
358392,-0.0212,-0.6904,0.7606
358416,-0.0210,-0.6914,0.7545
358439,-0.0226,-0.6935,0.7480
358461,-0.0295,-0.7004,0.7296
358499,-0.0416,-0.7104,0.7062
358549,-0.0680,-0.7300,0.6671
358587,-0.0898,-0.7454,0.6410
358610,-0.1134,-0.7616,0.6172
358627,-0.1251,-0.7695,0.6067
358649,-0.1365,-0.7771,0.5973
358672,-0.1472,-0.7842,0.5892
358719,-0.1737,-0.8013,0.5725
358744,-0.1854,-0.8086,0.5674
358767,-0.1895,-0.8109,0.5664
358789,-0.1923,-0.8124,0.5663
358806,-0.1940,-0.8130,0.5669
358828,-0.1940,-0.8120,0.5699
358851,-0.1926,-0.8107,0.5721
358878,-0.1873,-0.8065,0.5774
358909,-0.1791,-0.8014,0.5820
358932,-0.1742,-0.7987,0.5837
358956,-0.1632,-0.7931,0.5852
358978,-0.1573,-0.7900,0.5847
359001,-0.1511,-0.7870,0.5834
359018,-0.1448,-0.7837,0.5812
359040,-0.1318,-0.7767,0.5742
359063,-0.1252,-0.7729,0.5698
359087,-0.1184,-0.7692,0.5652
359109,-0.1041,-0.7614,0.5562
359153,-0.0885,-0.7222,0.5458
359177,-0.0715,-0.7456,0.5438
359197,-0.0627,-0.7419,0.5425
359220,-0.0447,-0.7355,0.5421
359242,-0.0358,-0.7328,0.5428
359259,-0.0271,-0.7305,0.5442
359282,-0.0187,-0.7284,0.5459
359301,-0.0107,-0.7267,0.5481
359347,0.0089,-0.7219,0.5570
359368,0.0139,-0.7202,0.5610
359390,0.0211,-0.7153,0.5717
359411,0.0234,-0.7119,0.5790
359432,0.0251,-0.7079,0.5881
359453,0.0269,-0.6974,0.6128
359484,0.0278,-0.6836,0.6476
359501,0.0284,-0.6757,0.6687
359536,0.0305,-0.6582,0.7175
359559,0.0319,-0.6488,0.7444
359581,0.0334,-0.6392,0.7721
359601,0.0365,-0.6195,0.8282
359624,0.0378,-0.6097,0.8552
359648,0.0388,-0.6001,0.8810
359670,0.0394,-0.5818,0.9265
359691,0.0388,-0.5731,0.9456
359754,0.0312,-0.5441,0.9917
359787,0.0243,-0.5342,0.9963
359810,0.0201,-0.5305,0.9945
359834,0.0106,-0.5258,0.9847
359857,0.0052,-0.5245,0.9775
359879,-0.0005,-0.5242,0.9694
359896,-0.0066,-0.5244,0.9606
359913,-0.0192,-0.5269,0.9423
359935,-0.0255,-0.5294,0.9332
359979,-0.0433,-0.5441,0.9072
360001,-0.0482,-0.5521,0.8986
360026,-0.0522,-0.5623,0.8899
360048,-0.0574,-0.5894,0.8713
360091,-0.0574,-0.6262,0.8503
360113,-0.0509,-0.6711,0.8267
360136,-0.0447,-0.6957,0.8140
360158,-0.0365,-0.7208,0.8008
360188,-0.0138,-0.7706,0.7740
360211,0.0166,-0.8162,0.7471
360231,0.0344,-0.8361,0.7335
360254,0.0533,-0.8536,0.7201
360276,0.0936,-0.8804,0.6929
360293,0.1140,-0.8892,0.6792
360317,0.1339,-0.8948,0.6654
360340,0.1530,-0.8970,0.6517
360374,0.1868,-0.8912,0.6125
360398,0.2129,-0.8723,0.6008
360421,0.2224,-0.8584,0.5902
360443,0.2341,-0.8234,0.5734
360466,0.2363,-0.8030,0.5675
360490,0.2362,-0.7815,0.5636
360512,0.2295,-0.7366,0.5619
360529,0.2234,-0.7142,0.5642
360565,0.2072,-0.6721,0.5747
360588,0.1975,-0.6531,0.5826
360611,0.1766,-0.6205,0.6033
360633,0.1660,-0.6073,0.6154
360655,0.1555,-0.5962,0.6284
360679,0.1362,-0.5806,0.6559
360707,0.1204,-0.5731,0.6835
360725,0.1140,-0.5721,0.6965
360777,0.1025,-0.5786,0.7292
360800,0.1017,-0.5836,0.7374
360817,0.1024,-0.5900,0.7439
360839,0.1090,-0.6062,0.7527
360875,0.1217,-0.6249,0.7567
360899,0.1296,-0.6344,0.7574
360921,0.1467,-0.6520,0.7578
360938,0.1552,-0.6594,0.7579
360967,0.1632,-0.6659,0.7583
361005,0.1819,-0.6775,0.7635
361022,0.1857,-0.6788,0.7671
361045,0.1881,-0.6788,0.7715
361067,0.1891,-0.6777,0.7769
361084,0.1885,-0.6754,0.7828
361106,0.1831,-0.6678,0.7963
361126,0.1783,-0.6628,0.8033
361164,0.1652,-0.6506,0.8170
361187,0.1481,-0.6371,0.8284
361212,0.1385,-0.6301,0.8325
361234,0.1189,-0.6169,0.8368
361256,0.1094,-0.6108,0.8367
361273,0.1005,-0.6053,0.8348
361323,0.0791,-0.5925,0.8203
361366,0.0690,-0.5842,0.7957
361385,0.0682,-0.5818,0.7863
361402,0.0686,-0.5792,0.7767
361421,0.0699,-0.5763,0.7675
361442,0.0721,-0.5729,0.7585
361464,0.0751,-0.5687,0.7504
361484,0.0823,-0.5579,0.7369
361506,0.0862,-0.5510,0.7321
361530,0.0901,-0.5432,0.7286
361547,0.0969,-0.5247,0.7271
361569,0.0996,-0.5142,0.7290
361612,0.1030,-0.4916,0.7393
361635,0.1038,-0.4686,0.7577
361657,0.1033,-0.4579,0.7699
361679,0.1012,-0.4393,0.7994
361700,0.0999,-0.4321,0.8164
361724,0.0986,-0.4264,0.8342
361748,0.0974,-0.4204,0.8712
361771,0.0977,-0.4200,0.8894
361823,0.1033,-0.4282,0.9384
361848,0.1104,-0.4390,0.9629
361871,0.1145,-0.4451,0.9722
361893,0.1188,-0.4513,0.9794
361910,0.1267,-0.4628,0.9874
361943,0.1323,-0.4717,0.9878
361960,0.1339,-0.4750,0.9854
361996,0.1349,-0.4792,0.9762
362019,0.1342,-0.4805,0.9697
362043,0.1312,-0.4819,0.9539
362065,0.1293,-0.4827,0.9449
362088,0.1274,-0.4838,0.9354
362105,0.1262,-0.4855,0.9254
362125,0.1274,-0.4917,0.9037
362146,0.1305,-0.4961,0.8920
362184,0.1421,-0.5081,0.8673
362207,0.1611,-0.5253,0.8424
362247,0.1863,-0.5483,0.8197
362270,0.2004,-0.5619,0.8098
362294,0.2300,-0.5917,0.7938
362317,0.2444,-0.6069,0.7878
362338,0.2581,-0.6221,0.7831
362380,0.2908,-0.6635,0.7744
362401,0.2983,-0.6752,0.7728
362427,0.3076,-0.6945,0.7703
362450,0.3094,-0.7018,0.7690
362472,0.3081,-0.7109,0.7660
362489,0.3054,-0.7124,0.7640
362512,0.3016,-0.7118,0.7618
362552,0.2919,-0.7041,0.7571
362583,0.2815,-0.6886,0.7524
362606,0.2723,-0.6666,0.7490
362623,0.2688,-0.6538,0.7484
362645,0.2659,-0.6401,0.7485
362667,0.2639,-0.6257,0.7495
362691,0.2626,-0.5961,0.7543
362714,0.2632,-0.5812,0.7578
362736,0.2661,-0.5522,0.7668
362753,0.2683,-0.5387,0.7721
362771,0.2708,-0.5260,0.7776
362794,0.2733,-0.5143,0.7833
362853,0.2798,-0.4796,0.8071
362884,0.2773,-0.4696,0.8193
362901,0.2740,-0.4664,0.8254
362923,0.2692,-0.4644,0.8314
362974,0.2445,-0.4647,0.8479
363004,0.2208,-0.4697,0.8567
363027,0.2074,-0.4734,0.8601
363051,0.1785,-0.4825,0.8650
363074,0.1635,-0.4877,0.8662
363096,0.1484,-0.4930,0.8666
363113,0.1337,-0.4983,0.8661
363133,0.1056,-0.5084,0.8630
363154,0.0925,-0.5131,0.8606
363182,0.0690,-0.5216,0.8540
363213,0.0490,-0.5289,0.8462
363236,0.0404,-0.5323,0.8422
363253,0.0326,-0.5355,0.8380
363276,0.0256,-0.5386,0.8341
363298,0.0137,-0.5449,0.8269
363315,0.0085,-0.5481,0.8239
363340,0.0038,-0.5514,0.8212
363361,-0.0004,-0.5547,0.8188
363379,-0.0077,-0.5616,0.8157
363401,-0.0105,-0.5653,0.8146
363421,-0.0128,-0.5690,0.8137
363463,-0.0151,-0.5800,0.8113
363480,-0.0140,-0.5836,0.8101
363500,-0.0118,-0.5873,0.8086
363517,-0.0084,-0.5907,0.8069
363540,-0.0040,-0.5942,0.8048
363562,0.0083,-0.6010,0.7999
363579,0.0160,-0.6041,0.7972
363604,0.0244,-0.6072,0.7946
363626,0.0337,-0.6099,0.7919
363653,0.0540,-0.6145,0.7867
363674,0.0646,-0.6162,0.7844
363697,0.0863,-0.6182,0.7803
363717,0.0970,-0.6184,0.7784
363739,0.1074,-0.6182,0.7770
363763,0.1268,-0.6162,0.7745
363803,0.1437,-0.6125,0.7732
363822,0.1509,-0.6102,0.7729
363865,0.1674,-0.6024,0.7731
363888,0.1710,-0.5997,0.7736
363905,0.1738,-0.5970,0.7740
363927,0.1770,-0.5920,0.7755
363950,0.1774,-0.5897,0.7764
363967,0.1771,-0.5875,0.7772
363989,0.1761,-0.5856,0.7782
364013,0.1724,-0.5819,0.7803
364041,0.1667,-0.5790,0.7825
364064,0.1633,-0.5776,0.7837
364104,0.1558,-0.5745,0.7875
364127,0.1473,-0.5737,0.7889
364152,0.1429,-0.5732,0.7904
364173,0.1339,-0.5729,0.7938
364196,0.1293,-0.5730,0.7958
364222,0.1199,-0.5740,0.8000
364245,0.1151,-0.5748,0.8025
364267,0.1104,-0.5759,0.8049
364294,0.1008,-0.5786,0.8097
364317,0.0962,-0.5802,0.8120
364341,0.0872,-0.5834,0.8159
364361,0.0829,-0.5850,0.8174
364381,0.0789,-0.5865,0.8185
364404,0.0715,-0.5892,0.8195
364422,0.0682,-0.5903,0.8192
364445,0.0654,-0.5912,0.8185
364467,0.0629,-0.5920,0.8175
364494,0.0591,-0.5931,0.8143
364517,0.0577,-0.5935,0.8123
364543,0.0565,-0.5941,0.8079
364566,0.0565,-0.5942,0.8057
364588,0.0579,-0.5947,0.8015
364605,0.0592,-0.5950,0.7998
364630,0.0609,-0.5953,0.7985
364652,0.0653,-0.5959,0.7968
364686,0.0708,-0.5963,0.7965
364710,0.0739,-0.5962,0.7970
364735,0.0800,-0.5950,0.7986
364758,0.0830,-0.5940,0.7997
364780,0.0858,-0.5927,0.8009
364797,0.0885,-0.5909,0.8022
364819,0.0929,-0.5868,0.8048
364837,0.0946,-0.5845,0.8062
364904,0.0967,-0.5751,0.8107
364929,0.0962,-0.5732,0.8115
364951,0.0942,-0.5704,0.8129
364974,0.0929,-0.5697,0.8134
364991,0.0914,-0.5693,0.8137
365018,0.0880,-0.5701,0.8141
365043,0.0862,-0.5710,0.8141
365070,0.0824,-0.5739,0.8141
365093,0.0806,-0.5757,0.8140
365117,0.0769,-0.5793,0.8136
365140,0.0752,-0.5813,0.8132
365162,0.0719,-0.5848,0.8121
365185,0.0706,-0.5865,0.8115
365207,0.0692,-0.5880,0.8107
365229,0.0674,-0.5903,0.8090
365267,0.0664,-0.5917,0.8069
365290,0.0663,-0.5920,0.8059
365321,0.0668,-0.5920,0.8041
365339,0.0674,-0.5918,0.8032
365356,0.0681,-0.5914,0.8025
365379,0.0701,-0.5905,0.8015
365397,0.0710,-0.5898,0.8013
365418,0.0723,-0.5892,0.8010
365440,0.0734,-0.5885,0.8010
365477,0.0770,-0.5858,0.8014
365500,0.0782,-0.5848,0.8016
365524,0.0808,-0.5824,0.8022
365546,0.0820,-0.5812,0.8025
365569,0.0833,-0.5798,0.8027
365586,0.0845,-0.5785,0.8030
365628,0.0878,-0.5748,0.8038
365676,0.0905,-0.5725,0.8049
365697,0.0912,-0.5720,0.8054
365721,0.0918,-0.5717,0.8059
365743,0.0928,-0.5715,0.8073
365766,0.0931,-0.5718,0.8080
365783,0.0934,-0.5720,0.8087
365805,0.0936,-0.5728,0.8104
365827,0.0938,-0.5731,0.8112
365844,0.0936,-0.5735,0.8119
365863,0.0935,-0.5737,0.8125
365885,0.0934,-0.5740,0.8130
365937,0.0923,-0.5741,0.8142
365961,0.0919,-0.5739,0.8145
365979,0.0916,-0.5735,0.8148
366001,0.0912,-0.5730,0.8154
366023,0.0905,-0.5715,0.8169
366040,0.0902,-0.5707,0.8179
366057,0.0898,-0.5697,0.8191
366080,0.0895,-0.5686,0.8203
366115,0.0889,-0.5663,0.8229
366138,0.0883,-0.5637,0.8253
366163,0.0880,-0.5625,0.8263
366185,0.0874,-0.5601,0.8278
366205,0.0870,-0.5590,0.8284
366229,0.0867,-0.5580,0.8286
366275,0.0854,-0.5555,0.8286
366313,0.0845,-0.5548,0.8281
366338,0.0835,-0.5547,0.8274
366360,0.0830,-0.5549,0.8270
366381,0.0825,-0.5553,0.8265
366400,0.0815,-0.5564,0.8258
366425,0.0811,-0.5571,0.8254
366447,0.0806,-0.5579,0.8251
366469,0.0798,-0.5596,0.8245
366506,0.0795,-0.5613,0.8240
366529,0.0793,-0.5620,0.8236
366553,0.0796,-0.5632,0.8230
366576,0.0798,-0.5636,0.8226
366599,0.0807,-0.5638,0.8220
366616,0.0812,-0.5638,0.8217
366639,0.0818,-0.5636,0.8214
366661,0.0824,-0.5632,0.8213
366681,0.0837,-0.5623,0.8213
366705,0.0844,-0.5616,0.8214
366726,0.0850,-0.5610,0.8217
366761,0.0862,-0.5591,0.8228
366784,0.0864,-0.5585,0.8232
366809,0.0865,-0.5579,0.8237
366831,0.0865,-0.5569,0.8248
366854,0.0864,-0.5564,0.8254
366881,0.0858,-0.5558,0.8265
366901,0.0854,-0.5555,0.8270
366924,0.0850,-0.5554,0.8275
366946,0.0837,-0.5554,0.8284
366991,0.0824,-0.5555,0.8290
367016,0.0811,-0.5559,0.8293
367039,0.0803,-0.5562,0.8295
367061,0.0791,-0.5565,0.8292
367078,0.0785,-0.5568,0.8291
367103,0.0781,-0.5569,0.8287
367125,0.0773,-0.5571,0.8280
367160,0.0768,-0.5573,0.8271
367183,0.0767,-0.5574,0.8267
367207,0.0765,-0.5574,0.8260
367228,0.0763,-0.5576,0.8250
367251,0.0763,-0.5577,0.8245
367275,0.0760,-0.5581,0.8235
367298,0.0759,-0.5583,0.8231
367315,0.0758,-0.5587,0.8229
367369,0.0752,-0.5602,0.8221
367390,0.0748,-0.5614,0.8218
367409,0.0747,-0.5620,0.8217
367430,0.0745,-0.5627,0.8215
367451,0.0743,-0.5634,0.8214
367468,0.0743,-0.5640,0.8213
367490,0.0743,-0.5651,0.8210
367515,0.0745,-0.5656,0.8210
367542,0.0750,-0.5663,0.8208
367565,0.0752,-0.5667,0.8207
367589,0.0760,-0.5670,0.8206
367612,0.0764,-0.5671,0.8204
367634,0.0769,-0.5673,0.8203
367651,0.0774,-0.5673,0.8203
367673,0.0784,-0.5671,0.8201
367696,0.0787,-0.5670,0.8201
367716,0.0792,-0.5669,0.8199
367733,0.0797,-0.5668,0.8198
367755,0.0806,-0.5664,0.8197
367815,0.0818,-0.5659,0.8196
367840,0.0823,-0.5658,0.8195
367863,0.0825,-0.5658,0.8192
367885,0.0829,-0.5658,0.8190
367902,0.0830,-0.5659,0.8187
367928,0.0830,-0.5659,0.8186
367950,0.0830,-0.5662,0.8184
368002,0.0826,-0.5667,0.8180
368025,0.0824,-0.5668,0.8180
368042,0.0822,-0.5669,0.8179
368064,0.0818,-0.5670,0.8177
368099,0.0802,-0.5674,0.8173
368116,0.0795,-0.5675,0.8171
368133,0.0785,-0.5676,0.8169
368156,0.0775,-0.5679,0.8167
368190,0.0752,-0.5685,0.8160
368212,0.0740,-0.5688,0.8158
368235,0.0718,-0.5699,0.8151
368258,0.0708,-0.5704,0.8147
368280,0.0698,-0.5717,0.8143
368297,0.0697,-0.5723,0.8142
368319,0.0698,-0.5728,0.8142
368336,0.0704,-0.5731,0.8142
368377,0.0726,-0.5736,0.8148
368401,0.0758,-0.5732,0.8159
368424,0.0778,-0.5729,0.8165
368446,0.0818,-0.5713,0.8180
368469,0.0837,-0.5702,0.8187
368493,0.0854,-0.5687,0.8195
368515,0.0881,-0.5648,0.8210
368540,0.0889,-0.5624,0.8217
368567,0.0886,-0.5563,0.8226
368590,0.0874,-0.5529,0.8228
368614,0.0826,-0.5455,0.8226
368637,0.0789,-0.5419,0.8225
368659,0.0691,-0.5358,0.8221
368676,0.0632,-0.5336,0.8223
368711,0.0503,-0.5315,0.8232
368733,0.0435,-0.5319,0.8242
368762,0.0305,-0.5356,0.8267
368785,0.0247,-0.5391,0.8281
368811,0.0150,-0.5483,0.8312
368834,0.0114,-0.5540,0.8325
368856,0.0087,-0.5599,0.8335
368873,0.0066,-0.5662,0.8342
368895,0.0044,-0.5784,0.8342
368918,0.0039,-0.5839,0.8335
368935,0.0035,-0.5890,0.8320
368953,0.0032,-0.5934,0.8301
368975,0.0015,-0.5997,0.8243
369050,-0.0082,-0.6013,0.8090
369068,-0.0122,-0.5994,0.8051
369090,-0.0219,-0.5929,0.7985
369113,-0.0275,-0.5885,0.7959
369137,-0.0333,-0.5835,0.7942
369154,-0.0455,-0.5721,0.7932
369176,-0.0516,-0.5660,0.7939
369211,-0.0635,-0.5542,0.7974
369234,-0.0687,-0.5491,0.7997
369256,-0.0771,-0.5424,0.8044
369279,-0.0800,-0.5414,0.8065
369321,-0.0803,-0.5511,0.8092
369338,-0.0771,-0.5591,0.8082
369361,-0.0721,-0.5695,0.8060
369383,-0.0652,-0.5823,0.8026
369414,-0.0452,-0.6149,0.7921
369435,-0.0181,-0.6550,0.7773
369459,-0.0024,-0.6770,0.7687
369482,0.0142,-0.6996,0.7594
369504,0.0487,-0.7454,0.7394
369521,0.0659,-0.7677,0.7288
369544,0.0826,-0.7894,0.7180
369561,0.0985,-0.8101,0.7070
369603,0.1390,-0.8634,0.6747
369627,0.1499,-0.8774,0.6646
369652,0.1674,-0.8982,0.6458
369675,0.1743,-0.9045,0.6376
369697,0.1802,-0.9078,0.6302
369714,0.1851,-0.9081,0.6240
369736,0.1931,-0.8998,0.6149
369759,0.1965,-0.8915,0.6119
369794,0.2030,-0.8678,0.6088
369817,0.2095,-0.8370,0.6085
369844,0.2129,-0.8202,0.6093
369866,0.2197,-0.7856,0.6115
369889,0.2231,-0.7689,0.6130
369933,0.2310,-0.7247,0.6188
369956,0.2319,-0.7126,0.6211
370019,0.2236,-0.6792,0.6307
370036,0.2180,-0.6747,0.6327
370059,0.2108,-0.6715,0.6342
370081,0.1926,-0.6698,0.6361
370098,0.1816,-0.6713,0.6367
370121,0.1696,-0.6740,0.6372
370143,0.1566,-0.6779,0.6378
370160,0.1428,-0.6829,0.6383
370177,0.1138,-0.6949,0.6399
370199,0.0990,-0.7018,0.6407
370230,0.0701,-0.7158,0.6428
370258,0.0565,-0.7228,0.6440
370279,0.0317,-0.7358,0.6467
370304,0.0208,-0.7417,0.6483
370326,0.0026,-0.7513,0.6520
370347,-0.0048,-0.7551,0.6541
370369,-0.0109,-0.7581,0.6564
370386,-0.0159,-0.7601,0.6589
370405,-0.0199,-0.7615,0.6616
370427,-0.0248,-0.7618,0.6676
370455,-0.0260,-0.7610,0.6707
370478,-0.0258,-0.7571,0.6768
370503,-0.0247,-0.7544,0.6796
370538,-0.0203,-0.7473,0.6847
370563,-0.0138,-0.7388,0.6888
370580,-0.0099,-0.7341,0.6906
370603,-0.0056,-0.7294,0.6921
370645,0.0083,-0.7148,0.6958
370668,0.0133,-0.7102,0.6968
370692,0.0231,-0.7015,0.6985
370715,0.0278,-0.6976,0.6995
370737,0.0323,-0.6938,0.7003
370754,0.0367,-0.6906,0.7014
370774,0.0448,-0.6848,0.7039
370798,0.0482,-0.6825,0.7053
370833,0.0540,-0.6790,0.7086
370857,0.0582,-0.6766,0.7125
370882,0.0597,-0.6759,0.7145
370904,0.0618,-0.6747,0.7181
370926,0.0624,-0.6742,0.7198
370945,0.0627,-0.6736,0.7212
370968,0.0630,-0.6729,0.7223
370986,0.0626,-0.6705,0.7236
371044,0.0608,-0.6644,0.7231
371067,0.0598,-0.6617,0.7224
371084,0.0585,-0.6589,0.7213
371106,0.0552,-0.6534,0.7180
371129,0.0530,-0.6510,0.7158
371170,0.0438,-0.6478,0.7065
371187,0.0397,-0.6488,0.7028
371222,0.0294,-0.6549,0.6940
371245,0.0232,-0.6603,0.6891
371269,0.0087,-0.6755,0.6781
371291,0.0005,-0.6852,0.6720
371312,-0.0083,-0.6957,0.6653
371336,-0.0270,-0.7189,0.6503
371357,-0.0367,-0.7312,0.6418
371376,-0.0465,-0.7437,0.6328
371393,-0.0564,-0.7562,0.6233
371426,-0.0757,-0.7810,0.6034
371461,-0.0942,-0.8044,0.5840
371479,-0.1030,-0.8153,0.5751
371501,-0.1193,-0.8347,0.5597
371524,-0.1266,-0.8430,0.5537
371541,-0.1333,-0.8500,0.5490
371563,-0.1447,-0.8593,0.5432
371585,-0.1493,-0.8613,0.5420
371604,-0.1531,-0.8617,0.5419
371627,-0.1561,-0.8605,0.5424
371649,-0.1598,-0.8536,0.5454
371677,-0.1604,-0.8486,0.5477
371700,-0.1597,-0.8369,0.5540
371725,-0.1584,-0.8308,0.5580
371747,-0.1543,-0.8193,0.5670
371778,-0.1482,-0.8110,0.5765
371800,-0.1442,-0.8088,0.5807
371824,-0.1394,-0.8085,0.5840
371866,-0.1188,-0.8210,0.5844
371889,-0.1093,-0.8303,0.5804
371913,-0.0854,-0.8561,0.5658
371936,-0.0712,-0.8719,0.5552
371958,-0.0553,-0.8892,0.5430
371975,-0.0382,-0.9070,0.5292
371997,-0.0012,-0.9412,0.4990
372015,0.0181,-0.9564,0.4833
372077,0.0923,-0.9929,0.4240
372101,0.1088,-0.9949,0.4115
372119,0.1239,-0.9938,0.4003
372141,0.1497,-0.9829,0.3831
372163,0.1602,-0.9736,0.3773
372180,0.1689,-0.9620,0.3737
372203,0.1763,-0.9485,0.3723
372220,0.1821,-0.9336,0.3730
372255,0.1898,-0.8839,0.3872
372278,0.1934,-0.8672,0.3953
372302,0.1940,-0.8511,0.4044
372323,0.1934,-0.8218,0.4252
372345,0.1925,-0.8090,0.4363
372367,0.1912,-0.7977,0.4475
372404,0.1851,-0.7729,0.4805
372422,0.1821,-0.7672,0.4910
372450,0.1785,-0.7626,0.5012
372473,0.1685,-0.7551,0.5216
372498,0.1619,-0.7520,0.5319
372520,0.1451,-0.7460,0.5529
372542,0.1353,-0.7434,0.5635
372559,0.1243,-0.7412,0.5743
372582,0.1125,-0.7396,0.5854
372604,0.0873,-0.7384,0.6086
372621,0.0741,-0.7389,0.6210
372638,0.0605,-0.7401,0.6337
372661,0.0470,-0.7417,0.6469
372703,0.0079,-0.7479,0.6865
372727,-0.0042,-0.7500,0.6987
372752,-0.0261,-0.7537,0.7201
372774,-0.0359,-0.7550,0.7286
372797,-0.0447,-0.7560,0.7357
372819,-0.0598,-0.7568,0.7450
372836,-0.0662,-0.7565,0.7472
372859,-0.0717,-0.7556,0.7480
372893,-0.0804,-0.7526,0.7456
372916,-0.0864,-0.7480,0.7388
372940,-0.0883,-0.7454,0.7340
372963,-0.0896,-0.7424,0.7286
372985,-0.0900,-0.7357,0.7163
373002,-0.0891,-0.7321,0.7097
373038,-0.0852,-0.7239,0.6964
373057,-0.0822,-0.7195,0.6899
373103,-0.0692,-0.7065,0.6725
373128,-0.0637,-0.7026,0.6677
373150,-0.0515,-0.6962,0.6604
373173,-0.0449,-0.6938,0.6580
373190,-0.0382,-0.6921,0.6562
373212,-0.0315,-0.6910,0.6554
373234,-0.0183,-0.6908,0.6560
373271,-0.0066,-0.6924,0.6593
373294,-0.0013,-0.6935,0.6616
373317,0.0072,-0.6960,0.6671
373340,0.0104,-0.6971,0.6699
373362,0.0148,-0.6990,0.6752
373384,0.0159,-0.6993,0.6774
373408,0.0162,-0.6993,0.6793
373431,0.0150,-0.6979,0.6823
373450,0.0134,-0.6965,0.6835
373468,0.0111,-0.6947,0.6848
373490,0.0083,-0.6924,0.6864
373532,-0.0037,-0.6849,0.6945
373555,-0.0085,-0.6826,0.6987
373579,-0.0189,-0.6788,0.7104
373602,-0.0242,-0.6775,0.7177
373624,-0.0292,-0.6763,0.7256
373651,-0.0376,-0.6746,0.7428
373682,-0.0427,-0.6732,0.7596
373705,-0.0437,-0.6726,0.7673
373722,-0.0435,-0.6721,0.7739
373744,-0.0396,-0.6714,0.7841
373767,-0.0360,-0.6710,0.7874
373784,-0.0314,-0.6705,0.7896
373806,-0.0261,-0.6700,0.7906
373827,-0.0142,-0.6687,0.7906
373850,-0.0079,-0.6676,0.7898
373867,-0.0018,-0.6661,0.7883
373889,0.0039,-0.6643,0.7866
373931,0.0166,-0.6565,0.7798
373955,0.0198,-0.6493,0.7745
373979,0.0193,-0.6451,0.7720
374002,0.0176,-0.6409,0.7694
374024,0.0100,-0.6316,0.7649
374041,0.0044,-0.6267,0.7629
374064,-0.0023,-0.6219,0.7614
374082,-0.0100,-0.6172,0.7603
374140,-0.0463,-0.6010,0.7609
374163,-0.0559,-0.5984,0.7623
374182,-0.0653,-0.5968,0.7643
374204,-0.0826,-0.5980,0.7675
374226,-0.0898,-0.6014,0.7679
374264,-0.1001,-0.6149,0.7645
374282,-0.1027,-0.6254,0.7599
374317,-0.1018,-0.6543,0.7432
374339,-0.0929,-0.6935,0.7161
374364,-0.0856,-0.7163,0.6987
374383,-0.0765,-0.7407,0.6793
374404,-0.0541,-0.7927,0.6355
374425,-0.0411,-0.8192,0.6121
374448,-0.0273,-0.8452,0.5881
374470,0.0018,-0.8942,0.5403
374508,0.0319,-0.9359,0.4954
374531,0.0469,-0.9531,0.4750
374565,0.0762,-0.9869,0.4286
374583,0.1033,-0.9917,0.4192
374605,0.1157,-0.9933,0.4133
374628,0.1274,-0.9917,0.4111
374645,0.1383,-0.9871,0.4124
374667,0.1576,-0.9696,0.4244
374692,0.1660,-0.9573,0.4346
374719,0.1804,-0.9275,0.4608
374742,0.1865,-0.9104,0.4762
374766,0.1960,-0.8735,0.5088
374789,0.1996,-0.8541,0.5251
374811,0.2021,-0.8345,0.5410
374828,0.2041,-0.8151,0.5558
374867,0.2056,-0.7610,0.5916
374892,0.2046,-0.7457,0.6002
374909,0.2029,-0.7325,0.6074
374931,0.1969,-0.7133,0.6179
374974,0.1870,-0.7041,0.6249
374997,0.1733,-0.7043,0.6293
375022,0.1654,-0.7075,0.6305
375044,0.1569,-0.7124,0.6312
375066,0.1393,-0.7258,0.6306
375083,0.1305,-0.7338,0.6292
375109,0.1219,-0.7423,0.6272
375131,0.1063,-0.7599,0.6216
375191,0.0876,-0.7839,0.6107
375215,0.0790,-0.7964,0.6030
375240,0.0758,-0.8013,0.5995
375262,0.0714,-0.8082,0.5930
375308,0.0688,-0.8118,0.5865
375325,0.0687,-0.8113,0.5853
375367,0.0692,-0.8083,0.5840
375389,0.0697,-0.8062,0.5839
375421,0.0710,-0.8005,0.5845
375442,0.0724,-0.7942,0.5859
375465,0.0730,-0.7911,0.5869
375483,0.0737,-0.7881,0.5879
375520,0.0750,-0.7830,0.5898
375558,0.0775,-0.7778,0.5924
375581,0.0787,-0.7770,0.5933
375605,0.0817,-0.7764,0.5955
375627,0.0835,-0.7765,0.5969
375650,0.0854,-0.7770,0.5986
375667,0.0876,-0.7776,0.6007
375686,0.0901,-0.7784,0.6031
375705,0.0952,-0.7804,0.6088
375728,0.0979,-0.7814,0.6119
375746,0.1006,-0.7823,0.6152
375768,0.1031,-0.7830,0.6184
375810,0.1105,-0.7838,0.6268
375834,0.1125,-0.7836,0.6288
375859,0.1162,-0.7825,0.6312
375882,0.1177,-0.7816,0.6316
375902,0.1189,-0.7809,0.6313
375925,0.1205,-0.7792,0.6295
375942,0.1208,-0.7786,0.6279
375965,0.1208,-0.7780,0.6260
376007,0.1187,-0.7773,0.6187
376030,0.1172,-0.7773,0.6158
376054,0.1134,-0.7777,0.6097
376077,0.1112,-0.7778,0.6063
376099,0.1089,-0.7781,0.6028
376116,0.1063,-0.7782,0.5991
376143,0.1011,-0.7783,0.5911
376162,0.0983,-0.7784,0.5869
376214,0.0895,-0.7789,0.5746
376239,0.0829,-0.7793,0.5673
376262,0.0795,-0.7793,0.5642
376284,0.0719,-0.7781,0.5593
376304,0.0679,-0.7769,0.5580
376327,0.0636,-0.7750,0.5574
376348,0.0538,-0.7703,0.5592
376384,0.0422,-0.7640,0.5660
376407,0.0356,-0.7606,0.5714
376445,0.0211,-0.7538,0.5857
376468,0.0050,-0.7478,0.6039
376493,-0.0034,-0.7454,0.6139
376515,-0.0204,-0.7421,0.6349
376538,-0.0288,-0.7412,0.6453
376564,-0.0448,-0.7417,0.6647
376587,-0.0524,-0.7428,0.6732
376609,-0.0596,-0.7445,0.6809
376636,-0.0731,-0.7493,0.6934
376659,-0.0796,-0.7520,0.6982
376683,-0.0924,-0.7571,0.7050
376706,-0.0989,-0.7592,0.7072
376748,-0.1189,-0.7620,0.7097
376767,-0.1260,-0.7616,0.7098
376790,-0.1332,-0.7605,0.7100
376812,-0.1483,-0.7561,0.7104
376840,-0.1559,-0.7529,0.7109
376863,-0.1700,-0.7455,0.7123
376888,-0.1763,-0.7415,0.7128
376910,-0.1854,-0.7344,0.7125
376930,-0.1879,-0.7321,0.7113
376954,-0.1885,-0.7310,0.7090
376971,-0.1871,-0.7314,0.7056
376993,-0.1780,-0.7383,0.6937
377036,-0.1594,-0.7544,0.6743
377060,-0.1321,-0.7808,0.6461
377085,-0.1155,-0.7977,0.6287
377107,-0.0776,-0.8375,0.5879
377129,-0.0570,-0.8595,0.5652
377146,-0.0359,-0.8823,0.5415
377169,-0.0146,-0.9053,0.5170
377187,0.0065,-0.9277,0.4923
377245,0.0818,-1.0000,0.3993
377268,0.0972,-1.0111,0.3793
377285,0.1111,-1.0189,0.3610
377307,0.1343,-1.0243,0.3303
377330,0.1437,-1.0222,0.3184
377361,0.1587,-1.0100,0.3015
377386,0.1646,-1.0005,0.2970
377432,0.1761,-0.9637,0.2993
377455,0.1794,-0.9358,0.3142
377475,0.1796,-0.9214,0.3254
377498,0.1787,-0.9067,0.3390
377520,0.1740,-0.8765,0.3717
377537,0.1700,-0.8608,0.3901
377560,0.1654,-0.8451,0.4094
377582,0.1602,-0.8296,0.4290
377612,0.1483,-0.8000,0.4680
377635,0.1355,-0.7749,0.5060
377668,0.1221,-0.7559,0.5425
377690,0.1152,-0.7485,0.5602
377715,0.1082,-0.7427,0.5776
377737,0.0941,-0.7340,0.6108
377760,0.0874,-0.7307,0.6263
377777,0.0808,-0.7279,0.6410
377794,0.0747,-0.7253,0.6547
377816,0.0691,-0.7230,0.6672
377858,0.0549,-0.7168,0.6991
377881,0.0513,-0.7150,0.7078
377905,0.0450,-0.7113,0.7228
377953,0.0383,-0.7059,0.7389
377984,0.0349,-0.7024,0.7455
378010,0.0334,-0.7006,0.7476
378032,0.0306,-0.6973,0.7495
378074,0.0283,-0.6941,0.7488
378097,0.0265,-0.6913,0.7458
378121,0.0258,-0.6901,0.7437
378144,0.0251,-0.6890,0.7412
378166,0.0244,-0.6868,0.7354
378183,0.0243,-0.6859,0.7323
378206,0.0243,-0.6849,0.7291
378224,0.0245,-0.6842,0.7260
378282,0.0267,-0.6815,0.7148
378306,0.0275,-0.6807,0.7128
378324,0.0281,-0.6798,0.7112
378345,0.0294,-0.6776,0.7090
378365,0.0299,-0.6763,0.7084
378387,0.0303,-0.6747,0.7081
378406,0.0304,-0.6730,0.7080
378429,0.0302,-0.6688,0.7087
378467,0.0287,-0.6635,0.7100
378487,0.0276,-0.6603,0.7108
378509,0.0261,-0.6566,0.7118
378531,0.0223,-0.6483,0.7141
378554,0.0201,-0.6436,0.7155
378571,0.0178,-0.6387,0.7169
378611,0.0105,-0.6239,0.7228
378628,0.0083,-0.6195,0.7255
378657,0.0062,-0.6157,0.7286
378677,0.0026,-0.6099,0.7366
378698,0.0011,-0.6079,0.7416
378721,-0.0002,-0.6066,0.7471
378743,-0.0024,-0.6052,0.7599
378760,-0.0033,-0.6047,0.7670
378783,-0.0042,-0.6044,0.7744
378805,-0.0049,-0.6036,0.7820
378822,-0.0056,-0.6027,0.7898
378839,-0.0063,-0.6010,0.7975
378861,-0.0078,-0.5956,0.8121
378904,-0.0090,-0.5872,0.8253
378928,-0.0096,-0.5760,0.8359
378953,-0.0095,-0.5696,0.8402
378975,-0.0078,-0.5559,0.8458
378996,-0.0060,-0.5490,0.8472
379019,-0.0032,-0.5422,0.8477
379036,0.0005,-0.5360,0.8474
379058,0.0109,-0.5260,0.8450
379101,0.0245,-0.5198,0.8420
379124,0.0403,-0.5175,0.8405
379149,0.0483,-0.5176,0.8405
379171,0.0641,-0.5197,0.8424
379194,0.0714,-0.5214,0.8441
379236,0.0883,-0.5272,0.8527
379254,0.0917,-0.5289,0.8563
379305,0.0936,-0.5321,0.8696
379328,0.0916,-0.5322,0.8744
379350,0.0883,-0.5317,0.8790
379370,0.0790,-0.5292,0.8868
379390,0.0737,-0.5271,0.8898
379414,0.0682,-0.5244,0.8917
379446,0.0583,-0.5175,0.8929
379489,0.0481,-0.5037,0.8894
379510,0.0464,-0.4987,0.8872
379543,0.0460,-0.4886,0.8821
379566,0.0499,-0.4794,0.8762
379590,0.0533,-0.4756,0.8733
379613,0.0576,-0.4723,0.8704
379635,0.0681,-0.4683,0.8651
379652,0.0737,-0.4677,0.8629
379669,0.0793,-0.4681,0.8610
379692,0.0846,-0.4697,0.8594
379734,0.0946,-0.4833,0.8580
379757,0.0951,-0.4910,0.8588
379781,0.0912,-0.5105,0.8618
379803,0.0868,-0.5220,0.8638
379844,0.0737,-0.5465,0.8668
379864,0.0569,-0.5706,0.8668
379886,0.0477,-0.5817,0.8650
379909,0.0386,-0.5918,0.8618
379936,0.0211,-0.6085,0.8516
379959,0.0132,-0.6150,0.8446
379983,0.0000,-0.6234,0.8282
380005,-0.0052,-0.6252,0.8195
380026,-0.0094,-0.6255,0.8107
380050,-0.0148,-0.6211,0.7943
380067,-0.0160,-0.6166,0.7875
380090,-0.0164,-0.6105,0.7816
380132,-0.0135,-0.5839,0.7722
380156,-0.0117,-0.5728,0.7719
380181,-0.0077,-0.5482,0.7744
380204,-0.0055,-0.5353,0.7771
380226,-0.0016,-0.5092,0.7841
380243,0.0000,-0.4963,0.7880
380265,0.0013,-0.4840,0.7920
380284,0.0024,-0.4720,0.7959
380350,0.0048,-0.4326,0.8097
380373,0.0055,-0.4253,0.8127
380393,0.0082,-0.4150,0.8184
380415,0.0107,-0.4124,0.8212
380438,0.0144,-0.4119,0.8239
380460,0.0256,-0.4178,0.8292
380477,0.0336,-0.4249,0.8319
380523,0.0669,-0.4640,0.8394
380565,0.0961,-0.5049,0.8435
380589,0.1122,-0.5291,0.8455
380611,0.1456,-0.5819,0.8486
380636,0.1621,-0.6094,0.8500
380658,0.1927,-0.6627,0.8517
380683,0.2062,-0.6873,0.8516
380719,0.2275,-0.7296,0.8488
380742,0.2407,-0.7618,0.8411
380765,0.2439,-0.7742,0.8350
380783,0.2450,-0.7839,0.8275
380805,0.2408,-0.7970,0.8079
380827,0.2360,-0.8008,0.7955
380845,0.2296,-0.8030,0.7815
380867,0.2222,-0.8040,0.7656
380884,0.2140,-0.8037,0.7482
380920,0.1877,-0.7974,0.6879
380942,0.1793,-0.7936,0.6663
380967,0.1713,-0.7892,0.6447
380989,0.1575,-0.7800,0.6028
381010,0.1516,-0.7756,0.5833
381033,0.1466,-0.7720,0.5649
381077,0.1356,-0.7666,0.5206
381116,0.1296,-0.7688,0.5023
381139,0.1224,-0.7751,0.4938
381164,0.1178,-0.7795,0.4928
381186,0.1056,-0.7899,0.4967
381209,0.0978,-0.7958,0.5010
381233,0.0787,-0.8083,0.5128
381255,0.0674,-0.8151,0.5200
381278,0.0548,-0.8218,0.5280
381325,0.0098,-0.8414,0.5553
381348,-0.0074,-0.8472,0.5649
381377,-0.0435,-0.8561,0.5836
381397,-0.0619,-0.8589,0.5922
381419,-0.0977,-0.8606,0.6063
381441,-0.1145,-0.8595,0.6115
381458,-0.1301,-0.8571,0.6151
381479,-0.1445,-0.8535,0.6173
381496,-0.1575,-0.8490,0.6180
381517,-0.1786,-0.8375,0.6157
381561,-0.1937,-0.8236,0.6091
381584,-0.2031,-0.8086,0.6001
381611,-0.2062,-0.8008,0.5952
381633,-0.2091,-0.7852,0.5854
381656,-0.2092,-0.7775,0.5807
381680,-0.2070,-0.7620,0.5717
381711,-0.2047,-0.7233,0.5629
381732,-0.1970,-0.7402,0.5586
381757,-0.1917,-0.7336,0.5544
381779,-0.1770,-0.7222,0.5471
381802,-0.1677,-0.7174,0.5442
381826,-0.1570,-0.7134,0.5420
381848,-0.1313,-0.7085,0.5400
381871,-0.1163,-0.7078,0.5406
381888,-0.1000,-0.7083,0.5422
381905,-0.0822,-0.7102,0.5449
381927,-0.0427,-0.7184,0.5527
381963,0.0016,-0.7324,0.5634
381987,0.0253,-0.7417,0.5693
382011,0.0742,-0.7634,0.5824
382033,0.0989,-0.7753,0.5895
382055,0.1232,-0.7871,0.5968
382079,0.1697,-0.8094,0.6115
382104,0.1914,-0.8188,0.6184
382126,0.2303,-0.8330,0.6309
382161,0.2622,-0.8395,0.6407
382184,0.2750,-0.8398,0.6448
382208,0.2942,-0.8351,0.6517
382230,0.3005,-0.8304,0.6549
382253,0.3047,-0.8246,0.6580
382270,0.3070,-0.8176,0.6610
382295,0.3065,-0.8014,0.6671
382314,0.3044,-0.7925,0.6702
382365,0.2946,-0.7642,0.6780
382386,0.2911,-0.7545,0.6802
382408,0.2854,-0.7360,0.6837
382429,0.2833,-0.7271,0.6854
382450,0.2821,-0.7186,0.6873
382467,0.2815,-0.7104,0.6891
382489,0.2827,-0.6952,0.6929
382506,0.2844,-0.6880,0.6946
382541,0.2903,-0.6742,0.6967
382564,0.2943,-0.6675,0.6969
382593,0.3038,-0.6543,0.6954
382611,0.3090,-0.6479,0.6938
382633,0.3141,-0.6417,0.6918
382655,0.3225,-0.6306,0.6871
382675,0.3253,-0.6262,0.6851
382698,0.3267,-0.6229,0.6835
382715,0.3263,-0.6208,0.6829
382751,0.3113,-0.6227,0.6876
382774,0.3013,-0.6257,0.6919
382799,0.2886,-0.6300,0.6974
382821,0.2565,-0.6412,0.7113
382844,0.2375,-0.6481,0.7192
382861,0.2170,-0.6555,0.7277
382901,0.1505,-0.6797,0.7533
382918,0.1282,-0.6877,0.7610
382946,0.1063,-0.6957,0.7678
382969,0.0667,-0.7100,0.7772
382994,0.0493,-0.7161,0.7794
383016,0.0215,-0.7256,0.7782
383036,0.0111,-0.7289,0.7749
383060,0.0031,-0.7311,0.7700
383082,-0.0066,-0.7323,0.7567
383104,-0.0085,-0.7314,0.7487
383141,-0.0078,-0.7279,0.7313
383164,-0.0026,-0.7228,0.7140
383204,0.0056,-0.7172,0.6984
383227,0.0104,-0.7144,0.6917
383251,0.0210,-0.7090,0.6803
383274,0.0267,-0.7064,0.6758
383296,0.0385,-0.7015,0.6689
383313,0.0446,-0.6993,0.6664
383331,0.0507,-0.6974,0.6643
383353,0.0568,-0.6958,0.6628
383409,0.0737,-0.6930,0.6617
383431,0.0831,-0.6927,0.6642
383455,0.0869,-0.6929,0.6665
383472,0.0900,-0.6931,0.6697
383506,0.0938,-0.6934,0.6781
383529,0.0945,-0.6932,0.6886
383551,0.0936,-0.6931,0.6943
383571,0.0924,-0.6931,0.7003
383598,0.0884,-0.6934,0.7120
383621,0.0861,-0.6936,0.7178
383645,0.0814,-0.6935,0.7283
383668,0.0796,-0.6929,0.7330
383690,0.0782,-0.6918,0.7373
383707,0.0778,-0.6899,0.7412
383731,0.0793,-0.6836,0.7480
383754,0.0818,-0.6790,0.7510
383792,0.0953,-0.6594,0.7583
383816,0.1018,-0.6516,0.7604
383834,0.1089,-0.6436,0.7627
383856,0.1166,-0.6355,0.7651
383878,0.1324,-0.6201,0.7711
383895,0.1404,-0.6132,0.7748
383918,0.1482,-0.6068,0.7788
383935,0.1556,-0.6012,0.7832
383977,0.1758,-0.5885,0.7974
384000,0.1819,-0.5854,0.8020
384024,0.1936,-0.5806,0.8099
384047,0.1992,-0.5786,0.8131
384067,0.2050,-0.5769,0.8156
384090,0.2162,-0.5742,0.8184
384123,0.2273,-0.5723,0.8186
384140,0.2328,-0.5714,0.8179
384175,0.2433,-0.5697,0.8148
384198,0.2480,-0.5688,0.8127
384222,0.2567,-0.5669,0.8074
384245,0.2603,-0.5658,0.8042
384267,0.2632,-0.5646,0.8008
384284,0.2653,-0.5634,0.7974
384306,0.2662,-0.5601,0.7906
384329,0.2648,-0.5579,0.7875
384384,0.2524,-0.5471,0.7806
384406,0.2383,-0.5356,0.7786
384430,0.2300,-0.5286,0.7783
384451,0.2213,-0.5210,0.7787
384475,0.2039,-0.5054,0.7817
384498,0.1957,-0.4983,0.7844
384520,0.1814,-0.4879,0.7927
384537,0.1753,-0.4855,0.7983
384554,0.1700,-0.4855,0.8048
384575,0.1652,-0.4882,0.8121
384596,0.1604,-0.4940,0.8204
384623,0.1503,-0.5155,0.8392
384646,0.1442,-0.5315,0.8492
384670,0.1300,-0.5741,0.8687
384693,0.1221,-0.6002,0.8771
384732,0.0959,-0.6921,0.8925
384751,0.0867,-0.7251,0.8936
384774,0.0771,-0.7583,0.8925
384796,0.0671,-0.7908,0.8890
384823,0.0460,-0.8514,0.8749
384846,0.0348,-0.8784,0.8639
384872,0.0115,-0.9227,0.8342
384895,-0.0005,-0.9390,0.8157
384917,-0.0236,-0.9583,0.7715
384934,-0.0345,-0.9607,0.7462
384959,-0.0446,-0.9585,0.7192
384981,-0.0620,-0.9408,0.6614
385016,-0.0747,-0.9077,0.6016
385040,-0.0792,-0.8867,0.5721
385065,-0.0846,-0.8392,0.5162
385088,-0.0853,-0.8140,0.4906
385109,-0.0850,-0.7886,0.4669
385133,-0.0813,-0.7394,0.4265
385156,-0.0780,-0.7166,0.4104
385173,-0.0740,-0.6957,0.3970
385215,-0.0571,-0.6484,0.3737
385238,-0.0499,-0.6394,0.3713
385262,-0.0327,-0.6337,0.3748
385285,-0.0228,-0.6373,0.3805
385307,-0.0122,-0.6456,0.3889
385324,-0.0009,-0.6582,0.3999
385349,0.0237,-0.6952,0.4288
385367,0.0367,-0.7184,0.4460
385434,0.0898,-0.8240,0.5210
385451,0.1025,-0.8497,0.5385
385472,0.1145,-0.8740,0.5544
385489,0.1257,-0.8962,0.5687
385516,0.1448,-0.9332,0.5907
385539,0.1525,-0.9474,0.5984
385561,0.1639,-0.9659,0.6071
385599,0.1703,-0.9716,0.6082
385621,0.1716,-0.9698,0.6066
385652,0.1711,-0.9586,0.6003
385670,0.1696,-0.9498,0.5964
385692,0.1647,-0.9270,0.5880
385715,0.1616,-0.9137,0.5841
385732,0.1584,-0.8993,0.5807
385754,0.1550,-0.8842,0.5778
385778,0.1481,-0.8527,0.5739
385807,0.1416,-0.8213,0.5726
385830,0.1384,-0.8063,0.5730
385891,0.1265,-0.7554,0.5812
385918,0.1235,-0.7456,0.5851
385958,0.1151,-0.7236,0.6005
386005,0.1082,-0.7112,0.6194
386028,0.1063,-0.7086,0.6261
386052,0.1030,-0.7053,0.6395
386074,0.1016,-0.7043,0.6461
386097,0.1002,-0.7036,0.6527
386114,0.0989,-0.7030,0.6589
386135,0.0964,-0.7014,0.6698
386157,0.0951,-0.7000,0.6743
386174,0.0939,-0.6980,0.6781
386192,0.0923,-0.6953,0.6812
386214,0.0906,-0.6921,0.6836
386258,0.0828,-0.6788,0.6884
386286,0.0746,-0.6681,0.6909
386303,0.0695,-0.6627,0.6925
386326,0.0636,-0.6573,0.6942
386346,0.0569,-0.6522,0.6964
386368,0.0416,-0.6434,0.7014
386385,0.0331,-0.6400,0.7043
386406,0.0240,-0.6373,0.7075
386425,0.0148,-0.6353,0.7108
386471,-0.0139,-0.6331,0.7222
386492,-0.0233,-0.6333,0.7262
386509,-0.0322,-0.6337,0.7303
386531,-0.0483,-0.6344,0.7385
386553,-0.0553,-0.6345,0.7426
386588,-0.0669,-0.6335,0.7504
386606,-0.0714,-0.6323,0.7539
386647,-0.0803,-0.6246,0.7627
386669,-0.0818,-0.6206,0.7648
386691,-0.0825,-0.6160,0.7662
386712,-0.0825,-0.6052,0.7687
386734,-0.0824,-0.5992,0.7703
386759,-0.0825,-0.5934,0.7729
386781,-0.0846,-0.5831,0.7834
386798,-0.0870,-0.5793,0.7920
386843,-0.0952,-0.5764,0.8318
386866,-0.1069,-0.5786,0.8486
386889,-0.1136,-0.5826,0.8662
386907,-0.1205,-0.5881,0.8835
386929,-0.1331,-0.6041,0.9137
386952,-0.1379,-0.6144,0.9246
386972,-0.1414,-0.6261,0.9313
386994,-0.1421,-0.6544,0.9302
387011,-0.1387,-0.6710,0.9215
387048,-0.1228,-0.7090,0.8887
387071,-0.1104,-0.7300,0.8654
387095,-0.0764,-0.7740,0.8090
387117,-0.0555,-0.7961,0.7775
387138,-0.0323,-0.8179,0.7450
387162,0.0192,-0.8582,0.6803
387195,0.0743,-0.8914,0.6201
387212,0.1021,-0.9044,0.5929
387249,0.1547,-0.9222,0.5458
387272,0.1788,-0.9266,0.5261
387296,0.2208,-0.9260,0.4948
387319,0.2383,-0.9213,0.4829
387336,0.2531,-0.9135,0.4734
387357,0.2750,-0.8906,0.4615
387378,0.2822,-0.8762,0.4590
387398,0.2871,-0.8604,0.4585
387416,0.2899,-0.8434,0.4601
387461,0.2881,-0.7905,0.4769
387510,0.2769,-0.7423,0.5082
387531,0.2721,-0.7285,0.5206
387553,0.2675,-0.7162,0.5339
387575,0.2583,-0.6959,0.5615
387592,0.2543,-0.6879,0.5757
387609,0.2505,-0.6810,0.5898
387631,0.2472,-0.6753,0.6039
387667,0.2422,-0.6663,0.6312
387690,0.2391,-0.6600,0.6573
387707,0.2382,-0.6577,0.6698
387730,0.2373,-0.6558,0.6820
387752,0.2356,-0.6528,0.7052
387769,0.2343,-0.6519,0.7164
387802,0.2297,-0.6500,0.7377
387819,0.2262,-0.6494,0.7477
387856,0.2161,-0.6484,0.7656
387879,0.2092,-0.6481,0.7734
387903,0.1923,-0.6478,0.7859
387926,0.1820,-0.6476,0.7905
387970,0.1460,-0.6477,0.7969
387987,0.1326,-0.6479,0.7965
388010,0.1188,-0.6482,0.7949
388027,0.1047,-0.6486,0.7922
388067,0.0637,-0.6487,0.7791
388105,0.0386,-0.6484,0.7675
388123,0.0270,-0.6482,0.7614
388142,0.0161,-0.6481,0.7550
388164,-0.0034,-0.6477,0.7428
388181,-0.0120,-0.6476,0.7372
388203,-0.0198,-0.6473,0.7318
388220,-0.0267,-0.6472,0.7271
388265,-0.0430,-0.6464,0.7172
388288,-0.0469,-0.6459,0.7156
388312,-0.0499,-0.6453,0.7151
388333,-0.0541,-0.6437,0.7173
388353,-0.0552,-0.6427,0.7201
388375,-0.0555,-0.6417,0.7241
388411,-0.0546,-0.6379,0.7422
388428,-0.0533,-0.6379,0.7422
388473,-0.0475,-0.6333,0.7659
388495,-0.0430,-0.6304,0.7814
388516,-0.0410,-0.6289,0.7885
388539,-0.0396,-0.6274,0.7947
388561,-0.0386,-0.6240,0.8048
388578,-0.0393,-0.6218,0.8085
388601,-0.0408,-0.6193,0.8115
388623,-0.0430,-0.6161,0.8137
388654,-0.0494,-0.6077,0.8164
388674,-0.0535,-0.6024,0.8170
388697,-0.0629,-0.5902,0.8167
388721,-0.0681,-0.5833,0.8159
388741,-0.0736,-0.5759,0.8151
388763,-0.0857,-0.5602,0.8132
388786,-0.0922,-0.5518,0.8129
388808,-0.1050,-0.5344,0.8135
388825,-0.1108,-0.5258,0.8147
388842,-0.1162,-0.5173,0.8167
388865,-0.1205,-0.5093,0.8190
388909,-0.1248,-0.4904,0.8268
388932,-0.1227,-0.4868,0.8291
388956,-0.1124,-0.4856,0.8322
388978,-0.1040,-0.4886,0.8328
389001,-0.0934,-0.4945,0.8328
389026,-0.0648,-0.5155,0.8308
389058,-0.0273,-0.5490,0.8279
389081,-0.0059,-0.5699,0.8265
389101,0.0172,-0.5930,0.8253
389123,0.0665,-0.6437,0.8235
389145,0.0919,-0.6698,0.8228
389167,0.1172,-0.6957,0.8218
389189,0.1654,-0.7437,0.8187
389212,0.1874,-0.7646,0.8160
389229,0.2075,-0.7831,0.8124
389246,0.2255,-0.7983,0.8076
389268,0.2410,-0.8104,0.8018
389305,0.2727,-0.8258,0.7775
389329,0.2783,-0.8240,0.7676
389346,0.2817,-0.8191,0.7571
389365,0.2830,-0.8114,0.7462
389386,0.2798,-0.7888,0.7242
389409,0.2758,-0.7749,0.7134
389432,0.2701,-0.7601,0.7029
389450,0.2633,-0.7449,0.6929
389510,0.2258,-0.6906,0.6595
389528,0.2150,-0.6802,0.6536
389549,0.2037,-0.6713,0.6484
389571,0.1814,-0.6577,0.6406
389594,0.1703,-0.6531,0.6376
389611,0.1595,-0.6498,0.6350
389636,0.1385,-0.6471,0.6302
389653,0.1287,-0.6476,0.6281
389689,0.1100,-0.6523,0.6245
389712,0.1013,-0.6564,0.6234
389736,0.0853,-0.6669,0.6232
389759,0.0780,-0.6731,0.6241
389781,0.0641,-0.6865,0.6281
389798,0.0573,-0.6935,0.6310
389820,0.0503,-0.7002,0.6345
389843,0.0430,-0.7067,0.6387
389882,0.0186,-0.7223,0.6544
389905,0.0095,-0.7260,0.6608
389935,-0.0098,-0.7300,0.6747
389952,-0.0195,-0.7305,0.6821
389975,-0.0294,-0.7297,0.6898
389997,-0.0487,-0.7250,0.7058
390014,-0.0579,-0.7211,0.7139
390037,-0.0665,-0.7162,0.7219
390061,-0.0815,-0.7039,0.7379
390091,-0.0879,-0.6965,0.7456
390114,-0.0974,-0.6804,0.7605
390131,-0.1005,-0.6720,0.7675
390154,-0.1023,-0.6632,0.7740
390175,-0.1029,-0.6545,0.7803
390200,-0.1007,-0.6372,0.7914
390241,-0.0950,-0.6207,0.8003
390281,-0.0833,-0.5984,0.8098
390304,-0.0793,-0.5916,0.8121
390321,-0.0757,-0.5852,0.8141
390343,-0.0701,-0.5735,0.8174
390363,-0.0684,-0.5681,0.8187
390386,-0.0675,-0.5631,0.8199
390406,-0.0675,-0.5586,0.8210
390427,-0.0699,-0.5503,0.8229
390452,-0.0723,-0.5466,0.8235
390470,-0.0752,-0.5431,0.8240
390492,-0.0819,-0.5366,0.8240
390561,-0.0934,-0.5276,0.8209
390588,-0.0947,-0.5258,0.8177
390606,-0.0942,-0.5259,0.8158
390628,-0.0924,-0.5267,0.8136
390651,-0.0894,-0.5284,0.8113
390670,-0.0850,-0.5310,0.8087
390691,-0.0720,-0.5389,0.8036
390713,-0.0634,-0.5444,0.8008
390742,-0.0416,-0.5592,0.7944
390765,-0.0289,-0.5688,0.7908
390789,-0.0006,-0.5931,0.7825
390812,0.0143,-0.6078,0.7782
390834,0.0295,-0.6240,0.7740
390851,0.0447,-0.6414,0.7704
390893,0.0880,-0.6969,0.7620
390938,0.1235,-0.7493,0.7567
390961,0.1327,-0.7642,0.7550
390985,0.1461,-0.7878,0.7511
391007,0.1503,-0.7963,0.7488
391030,0.1528,-0.8020,0.7462
391047,0.1541,-0.8051,0.7435
391069,0.1532,-0.8033,0.7385
391086,0.1517,-0.7988,0.7363
391131,0.1476,-0.7833,0.7333
391156,0.1433,-0.7617,0.7327
391195,0.1395,-0.7358,0.7356
391217,0.1368,-0.7065,0.7418
391237,0.1360,-0.6912,0.7454
391260,0.1353,-0.6757,0.7488
391284,0.1344,-0.6459,0.7543
391321,0.1337,-0.6194,0.7572
391346,0.1334,-0.6079,0.7579
391367,0.1333,-0.5890,0.7584
391387,0.1334,-0.5814,0.7585
391408,0.1337,-0.5753,0.7588
391431,0.1339,-0.5673,0.7594
391453,0.1337,-0.5652,0.7599
391476,0.1331,-0.5646,0.7603
391504,0.1307,-0.5669,0.7614
391561,0.1248,-0.5774,0.7638
391582,0.1198,-0.5873,0.7662
391605,0.1171,-0.5925,0.7676
391627,0.1145,-0.5979,0.7688
391644,0.1121,-0.6031,0.7701
391666,0.1077,-0.6133,0.7720
391691,0.1058,-0.6178,0.7726
391728,0.1023,-0.6289,0.7728
391748,0.1018,-0.6316,0.7723
391773,0.1017,-0.6338,0.7715
391804,0.1022,-0.6366,0.7694
391827,0.1034,-0.6375,0.7670
391844,0.1042,-0.6372,0.7659
391866,0.1051,-0.6367,0.7649
391889,0.1060,-0.6359,0.7640
391920,0.1077,-0.6335,0.7632
391943,0.1090,-0.6309,0.7634
391960,0.1094,-0.6294,0.7639
391983,0.1096,-0.6281,0.7646
392005,0.1095,-0.6267,0.7655
392022,0.1093,-0.6256,0.7666
392044,0.1079,-0.6238,0.7689
392067,0.1069,-0.6230,0.7701
392084,0.1058,-0.6226,0.7712
392109,0.1033,-0.6222,0.7733
392126,0.1019,-0.6222,0.7742
392171,0.0992,-0.6229,0.7754
392194,0.0969,-0.6243,0.7760
392211,0.0959,-0.6252,0.7760
392234,0.0951,-0.6263,0.7759
392254,0.0945,-0.6277,0.7755
392278,0.0931,-0.6307,0.7740
392301,0.0925,-0.6324,0.7729
392325,0.0909,-0.6360,0.7701
392367,0.0890,-0.6398,0.7666
392389,0.0864,-0.6434,0.7625
392412,0.0851,-0.6453,0.7603
392430,0.0835,-0.6469,0.7579
392452,0.0818,-0.6484,0.7556
392474,0.0780,-0.6512,0.7510
392491,0.0758,-0.6525,0.7488
392514,0.0736,-0.6536,0.7466
392532,0.0713,-0.6545,0.7445
392586,0.0612,-0.6572,0.7378
392610,0.0586,-0.6577,0.7367
392633,0.0560,-0.6580,0.7357
392655,0.0511,-0.6583,0.7345
392672,0.0490,-0.6584,0.7341
392695,0.0469,-0.6584,0.7340
392720,0.0435,-0.6583,0.7341
392759,0.0409,-0.6582,0.7349
392780,0.0400,-0.6581,0.7354
392804,0.0388,-0.6577,0.7363
392827,0.0385,-0.6576,0.7369
392849,0.0382,-0.6573,0.7375
392866,0.0381,-0.6571,0.7380
392888,0.0378,-0.6564,0.7391
392911,0.0377,-0.6560,0.7396
392928,0.0376,-0.6555,0.7401
392945,0.0374,-0.6550,0.7406
392967,0.0370,-0.6541,0.7417
393012,0.0366,-0.6533,0.7428
393036,0.0361,-0.6530,0.7440
393053,0.0359,-0.6528,0.7448
393076,0.0354,-0.6528,0.7455
393098,0.0343,-0.6528,0.7471
393115,0.0336,-0.6528,0.7478
393137,0.0327,-0.6527,0.7487
393155,0.0319,-0.6527,0.7494
393199,0.0283,-0.6521,0.7517
393222,0.0270,-0.6516,0.7524
393245,0.0255,-0.6511,0.7532
393265,0.0226,-0.6495,0.7545
393288,0.0210,-0.6486,0.7552
393312,0.0179,-0.6464,0.7566
393346,0.0150,-0.6436,0.7581
393369,0.0137,-0.6421,0.7589
393400,0.0112,-0.6389,0.7610
393422,0.0101,-0.6375,0.7621
393444,0.0084,-0.6348,0.7645
393466,0.0078,-0.6335,0.7657
393489,0.0073,-0.6324,0.7670
393506,0.0071,-0.6315,0.7681
393528,0.0071,-0.6299,0.7699
393551,0.0073,-0.6293,0.7708
393617,0.0100,-0.6276,0.7729
393653,0.0120,-0.6270,0.7738
393676,0.0140,-0.6263,0.7745
393700,0.0150,-0.6261,0.7749
393723,0.0160,-0.6257,0.7751
393745,0.0175,-0.6252,0.7755
393783,0.0186,-0.6248,0.7756
393806,0.0190,-0.6245,0.7755
393823,0.0194,-0.6243,0.7753
393845,0.0199,-0.6238,0.7747
393868,0.0200,-0.6237,0.7743
393885,0.0200,-0.6235,0.7739
393907,0.0198,-0.6235,0.7733
393929,0.0195,-0.6235,0.7731
393955,0.0189,-0.6238,0.7732
393987,0.0186,-0.6239,0.7734
394010,0.0177,-0.6243,0.7744
394027,0.0173,-0.6245,0.7750
394050,0.0170,-0.6248,0.7756
394072,0.0164,-0.6254,0.7767
394089,0.0162,-0.6257,0.7770
394111,0.0160,-0.6261,0.7771
394134,0.0160,-0.6265,0.7770
394151,0.0161,-0.6267,0.7767
394168,0.0162,-0.6271,0.7762
394190,0.0170,-0.6274,0.7749
394235,0.0181,-0.6276,0.7736
394259,0.0195,-0.6274,0.7723
394283,0.0204,-0.6273,0.7719
394305,0.0221,-0.6270,0.7712
394328,0.0229,-0.6267,0.7710
394345,0.0238,-0.6263,0.7708
394364,0.0247,-0.6261,0.7706
394387,0.0262,-0.6255,0.7704
394422,0.0278,-0.6249,0.7703
394445,0.0286,-0.6245,0.7703
394471,0.0298,-0.6240,0.7705
394494,0.0304,-0.6238,0.7706
394516,0.0308,-0.6237,0.7710
394533,0.0312,-0.6234,0.7714
394570,0.0319,-0.6229,0.7728
394588,0.0320,-0.6228,0.7734
394634,0.0320,-0.6224,0.7750
394659,0.0319,-0.6223,0.7755
394681,0.0317,-0.6223,0.7760
394703,0.0314,-0.6221,0.7767
394720,0.0312,-0.6219,0.7770
394743,0.0310,-0.6219,0.7772
394765,0.0306,-0.6218,0.7776
394804,0.0303,-0.6217,0.7778
394827,0.0302,-0.6217,0.7778
394844,0.0300,-0.6216,0.7780
394863,0.0299,-0.6213,0.7781
394885,0.0299,-0.6212,0.7782
394910,0.0300,-0.6211,0.7782
394932,0.0306,-0.6208,0.7781
394955,0.0311,-0.6207,0.7780
394979,0.0328,-0.6205,0.7777
394996,0.0339,-0.6205,0.7775
395018,0.0353,-0.6205,0.7772
395055,0.0385,-0.6207,0.7766
395078,0.0420,-0.6212,0.7761
395102,0.0437,-0.6216,0.7759
395125,0.0453,-0.6221,0.7758
395147,0.0482,-0.6232,0.7755
395177,0.0502,-0.6244,0.7755
395196,0.0508,-0.6250,0.7756
395219,0.0511,-0.6256,0.7758
395241,0.0511,-0.6261,0.7759
395270,0.0504,-0.6271,0.7760
395292,0.0498,-0.6273,0.7760
395315,0.0480,-0.6279,0.7758
395335,0.0469,-0.6281,0.7755
395354,0.0459,-0.6282,0.7751
395376,0.0437,-0.6284,0.7743
395397,0.0427,-0.6284,0.7738
395420,0.0417,-0.6285,0.7734
395464,0.0392,-0.6289,0.7722
395488,0.0385,-0.6290,0.7719
395509,0.0372,-0.6293,0.7712
395532,0.0369,-0.6295,0.7710
395554,0.0367,-0.6296,0.7706
395571,0.0366,-0.6299,0.7703
395593,0.0371,-0.6304,0.7694
395611,0.0375,-0.6307,0.7689
395629,0.0381,-0.6311,0.7684
395686,0.0405,-0.6324,0.7665
395704,0.0416,-0.6329,0.7657
395726,0.0439,-0.6343,0.7642
395749,0.0452,-0.6350,0.7633
395766,0.0463,-0.6357,0.7626
395792,0.0485,-0.6373,0.7611
395815,0.0494,-0.6382,0.7605
395852,0.0509,-0.6395,0.7596
395875,0.0518,-0.6407,0.7590
395892,0.0519,-0.6414,0.7589
395915,0.0519,-0.6417,0.7589
395937,0.0514,-0.6422,0.7589
395954,0.0509,-0.6423,0.7589
395977,0.0503,-0.6423,0.7590
395999,0.0496,-0.6422,0.7592
396038,0.0471,-0.6412,0.7596
396061,0.0463,-0.6407,0.7598
396094,0.0446,-0.6396,0.7601
396117,0.0438,-0.6390,0.7604
396141,0.0427,-0.6379,0.7609
396164,0.0424,-0.6376,0.7611
396186,0.0422,-0.6373,0.7617
396203,0.0424,-0.6375,0.7620
396220,0.0426,-0.6379,0.7621
396243,0.0427,-0.6387,0.7622
396280,0.0430,-0.6407,0.7621
396298,0.0430,-0.6420,0.7620
396318,0.0430,-0.6440,0.7614
396341,0.0430,-0.6449,0.7612
396363,0.0430,-0.6455,0.7611
396392,0.0436,-0.6458,0.7614
396416,0.0450,-0.6449,0.7618
396440,0.0461,-0.6442,0.7620
396462,0.0475,-0.6433,0.7621
396499,0.0524,-0.6400,0.7614
396522,0.0542,-0.6388,0.7607
396549,0.0583,-0.6365,0.7595
396572,0.0605,-0.6354,0.7592
396594,0.0627,-0.6343,0.7590
396611,0.0648,-0.6332,0.7593
396629,0.0685,-0.6310,0.7617
396651,0.0698,-0.6296,0.7640
396712,0.0724,-0.6157,0.7810
396736,0.0723,-0.6089,0.7871
396754,0.0720,-0.6003,0.7938
396776,0.0713,-0.5906,0.8013
396798,0.0690,-0.5669,0.8170
396815,0.0673,-0.5530,0.8250
396838,0.0652,-0.5381,0.8329
396860,0.0607,-0.5060,0.8478
396890,0.0583,-0.4897,0.8545
396913,0.0538,-0.4590,0.8663
396930,0.0515,-0.4454,0.8713
396953,0.0493,-0.4336,0.8757
396975,0.0469,-0.4240,0.8795
396992,0.0413,-0.4124,0.8853
397014,0.0377,-0.4105,0.8875
397039,0.0339,-0.4113,0.8893
397079,0.0209,-0.4257,0.8934
397102,0.0165,-0.4329,0.8947
397126,0.0087,-0.4486,0.8973
397149,0.0054,-0.4561,0.8988
397171,0.0027,-0.4628,0.9005
397188,0.0005,-0.4685,0.9023
397210,-0.0021,-0.4760,0.9062
397233,-0.0024,-0.4775,0.9084
397272,-0.0004,-0.4728,0.9152
397295,0.0012,-0.4683,0.9175
397312,0.0032,-0.4625,0.9197
397343,0.0082,-0.4481,0.9240
397365,0.0110,-0.4397,0.9260
397386,0.0140,-0.4308,0.9280
397407,0.0205,-0.4124,0.9314
397427,0.0238,-0.4033,0.9330
397444,0.0270,-0.3945,0.9343
397462,0.0300,-0.3865,0.9355
397484,0.0327,-0.3792,0.9365
397521,0.0389,-0.3628,0.9373
397543,0.0404,-0.3593,0.9368
397568,0.0414,-0.3567,0.9358
397590,0.0426,-0.3544,0.9331
397613,0.0427,-0.3544,0.9315
397640,0.0425,-0.3563,0.9286
397673,0.0415,-0.3599,0.9264
397734,0.0381,-0.3685,0.9242
397759,0.0370,-0.3705,0.9241
397782,0.0359,-0.3723,0.9242
397804,0.0334,-0.3751,0.9248
397821,0.0322,-0.3762,0.9254
397844,0.0310,-0.3771,0.9260
397864,0.0298,-0.3776,0.9268
397910,0.0264,-0.3779,0.9290
397933,0.0244,-0.3773,0.9301
397959,0.0234,-0.3768,0.9304
397982,0.0226,-0.3762,0.9307
398004,0.0210,-0.3750,0.9309
398021,0.0203,-0.3745,0.9309
398044,0.0197,-0.3740,0.9309
